"Time (s)","Acceleration x (m/s^2)","Acceleration y (m/s^2)","Acceleration z (m/s^2)","Absolute acceleration (m/s^2)"
3.748177400E-2,2.833101988E0,3.325425386E0,9.294919968E0,1.027036796E1
3.995245100E-2,2.694318295E0,3.325425386E0,9.294919968E0,1.023295374E1
4.242312800E-2,2.603390932E0,3.368496180E0,9.366703987E0,1.028880724E1
4.489375300E-2,2.579462767E0,3.406781197E0,9.443274498E0,1.036509621E1
4.738453400E-2,2.545963287E0,3.473780155E0,9.524630547E0,1.045311746E1
4.985568000E-2,2.459821701E0,3.564707518E0,9.586843491E0,1.051976381E1
5.232687800E-2,2.411965132E0,3.598206997E0,9.534201622E0,1.047213779E1
5.479802400E-2,2.320439816E0,3.703491211E0,9.515059471E0,1.047075187E1
5.726917000E-2,2.224726915E0,3.832703590E0,9.467203140E0,1.045308385E1
5.974031600E-2,2.186441660E0,3.918845177E0,9.328418732E0,1.035167961E1
6.221151400E-2,2.181656122E0,3.894917011E0,9.175278664E0,1.020371209E1
6.468265900E-2,2.277369022E0,3.875774384E0,9.031708717E0,1.008859748E1
6.717234700E-2,2.364108801E0,3.827918053E0,8.859425545E0,9.936366943E0
6.964401400E-2,2.469393015E0,3.736990690E0,8.773283958E0,9.850559004E0
7.211562800E-2,2.579462767E0,3.689134359E0,8.629714966E0,9.733207122E0
7.458724300E-2,2.679961443E0,3.492922783E0,8.572287560E0,9.636743065E0
7.705885700E-2,2.828316450E0,3.301496983E0,8.523832321E0,9.568436325E0
7.953052400E-2,2.962314367E0,3.253640652E0,8.432905197E0,9.511854392E0
8.200213900E-2,3.105883837E0,3.277568817E0,8.466404915E0,9.595258409E0
8.447375300E-2,3.182454109E0,3.296711445E0,8.601000786E0,9.745436626E0
8.696031600E-2,3.182454109E0,3.325425386E0,8.682356834E0,9.826992844E0
8.943229500E-2,3.129812002E0,3.334996462E0,8.811569214E0,9.927823356E0
9.190432600E-2,3.062813044E0,3.311068296E0,8.897710800E0,9.975633037E0
9.437630500E-2,2.986242771E0,3.239283562E0,8.950352669E0,9.975941899E0
9.684833700E-2,2.895315409E0,3.224926710E0,8.940781593E0,9.935823021E0
9.932031600E-2,2.799602509E0,3.210569859E0,8.873783112E0,9.843249450E0
1.017923470E-1,2.703889608E0,3.153141975E0,8.811569214E0,9.741512990E0
1.042643260E-1,2.723032236E0,3.090330362E0,8.725427628E0,9.648737409E0
1.067482840E-1,2.713460922E0,3.023331404E0,8.701499939E0,9.603098674E0
1.092205240E-1,2.737389088E0,3.037688255E0,8.663214684E0,9.579777534E0
1.116928680E-1,2.794816732E0,3.023331404E0,8.677571297E0,9.604778860E0
1.141651590E-1,2.823530674E0,3.047259569E0,8.629714966E0,9.577583032E0
1.166374510E-1,2.866601467E0,3.028116941E0,8.533403397E0,9.497677069E0
1.191097430E-1,2.928814888E0,2.975475073E0,8.408976555E0,9.388412819E0
1.215820340E-1,3.005385160E0,2.937189817E0,8.318049431E0,9.319300957E0
1.240543780E-1,3.125026464E0,2.961117983E0,8.184051514E0,9.247308219E0
1.265362010E-1,3.129812002E0,2.889333248E0,8.069195747E0,9.124466549E0
1.290087530E-1,3.120240688E0,2.860619545E0,7.772486210E0,8.850456938E0
1.314813050E-1,3.038884640E0,2.798406124E0,7.734200954E0,8.768338559E0
1.339538570E-1,3.120240688E0,2.736192703E0,7.930412292E0,8.950647551E0
1.364263570E-1,3.211168051E0,2.721835852E0,7.930412292E0,8.978386814E0
1.388989090E-1,3.182454109E0,2.755335331E0,7.868198872E0,8.923476925E0
1.413714620E-1,3.067598581E0,2.798406124E0,7.801199913E0,8.837418060E0
1.438440140E-1,2.971885681E0,2.884547710E0,7.863413334E0,8.887406216E0
1.463241180E-1,2.847458839E0,2.985046148E0,7.911269665E0,8.922259246E0
1.487968780E-1,2.723032236E0,3.008974552E0,8.011768341E0,8.980938947E0
1.512696390E-1,2.627319336E0,3.075973511E0,8.088338852E0,9.043541636E0
1.537423470E-1,2.522035122E0,3.177070379E0,8.069195747E0,9.031409489E0
1.562150550E-1,2.421536446E0,3.191427231E0,8.073982239E0,9.013225600E0
1.586878160E-1,2.296511650E0,3.215355396E0,8.164909363E0,9.070734313E0
1.611605760E-1,2.219941139E0,3.224926710E0,8.150551796E0,9.042111785E0
1.636332840E-1,2.162513494E0,3.229712248E0,8.145766258E0,9.025575536E0
1.661121390E-1,2.071586132E0,3.196212769E0,8.126624107E0,8.974924208E0
1.685850030E-1,1.961516380E0,3.196212769E0,8.112266541E0,8.937124314E0
1.710579200E-1,1.889731646E0,3.205784082E0,8.121838570E0,8.933778541E0
1.735307840E-1,1.851446509E0,3.205784082E0,8.126624107E0,8.930113389E0
1.760036490E-1,1.841875196E0,3.157927752E0,8.078767776E0,8.867440482E0
1.784765660E-1,1.717448473E0,3.124428272E0,8.164909363E0,8.909401001E0
1.809494820E-1,1.727019787E0,3.119044304E0,8.193622589E0,8.935686087E0
1.834223470E-1,1.707877159E0,3.032902718E0,8.193622589E0,8.902291526E0
1.859001590E-1,1.674377680E0,3.008974552E0,8.274978638E0,8.962853336E0
1.883731280E-1,1.631306887E0,2.994617462E0,8.284550667E0,8.958943892E0
1.908461490E-1,1.645663738E0,2.951546669E0,8.370692253E0,9.027088438E0
1.933191180E-1,1.583450437E0,2.965903759E0,8.408976555E0,9.056201582E0
1.957921910E-1,1.506880045E0,2.946761131E0,8.485547066E0,9.108161046E0
1.982651590E-1,1.444666624E0,2.927618504E0,8.562117577E0,9.163398341E0
2.007381800E-1,1.401595831E0,2.927618504E0,8.658429146E0,9.246827361E0
2.032112010E-1,1.387238979E0,2.956332445E0,8.663214684E0,9.258273174E0
2.056881280E-1,1.334596872E0,2.980260611E0,8.773283958E0,9.361282686E0
2.081612530E-1,1.295713425E0,2.975475073E0,8.902496338E0,9.475587910E0
2.106343780E-1,1.243071318E0,3.052045345E0,8.892925262E0,9.483898292E0
2.131074510E-1,1.166501045E0,3.061616659E0,8.840283394E0,9.427875251E0
2.155805760E-1,1.094716311E0,3.042474031E0,8.749356270E0,9.327716075E0
2.180537010E-1,9.750752449E-1,2.970689297E0,8.720642090E0,9.264198027E0
2.205267740E-1,6.113662124E-1,2.884547710E0,8.644071579E0,9.133146096E0
2.229998990E-1,5.156532526E-1,2.726621389E0,8.634500504E0,9.069452102E0
2.254760450E-1,4.965106845E-1,2.635694027E0,8.567501068E0,8.977498561E0
2.279492220E-1,4.103690982E-1,2.511267424E0,8.322834969E0,8.703128678E0
2.304224510E-1,4.821537733E-1,2.396411896E0,8.102695465E0,8.463387976E0
2.328956280E-1,6.305087805E-1,2.401197433E0,7.973483086E0,8.351031251E0
2.353688050E-1,9.511470199E-1,2.377269268E0,7.820342541E0,8.228842402E0
2.378419820E-1,1.152144074E0,2.429911375E0,7.729415417E0,8.183872430E0
2.403151590E-1,1.329811215E0,2.458625317E0,7.734200954E0,8.223813028E0
2.427883370E-1,1.535593987E0,2.482553482E0,7.782057285E0,8.311530321E0
2.452640660E-1,1.703091502E0,2.472982168E0,7.849056244E0,8.403799461E0
2.477373470E-1,1.894517303E0,2.482553482E0,7.887341499E0,8.483066870E0
2.502105760E-1,2.133799553E0,2.415554523E0,7.916055679E0,8.547042863E0
2.526838570E-1,2.196012974E0,2.338984251E0,7.954340458E0,8.576995536E0
2.551570870E-1,2.148156643E0,2.233700037E0,8.073982239E0,8.648305152E0
2.576303160E-1,2.119442701E0,2.133201361E0,8.207980156E0,8.741482921E0
2.601035970E-1,1.990230203E0,2.085345030E0,8.313263893E0,8.798865649E0
2.625768260E-1,1.861017823E0,1.993819475E0,8.404191017E0,8.835673720E0
2.650520870E-1,1.750947952E0,1.907677889E0,8.519046783E0,8.903887452E0
2.675254200E-1,1.640878081E0,1.831107497E0,8.773283958E0,9.111308740E0
2.699987010E-1,1.626521230E0,1.697109461E0,9.036494255E0,9.337236221E0
2.724720340E-1,1.602592945E0,1.524826288E0,9.323633194E0,9.582459773E0
2.749453160E-1,1.593021631E0,1.390828133E0,9.620942116E0,9.850616631E0
2.774185970E-1,1.559522152E0,1.223330617E0,9.888937950E0,1.008562050E1
2.798919300E-1,1.478166223E0,1.051047325E0,1.015214825E1,1.031289435E1
2.823652120E-1,1.348953724E0,9.547362328E-1,1.029093170E1,1.042278623E1
2.848400550E-1,1.195214868E0,8.733802438E-1,1.031964588E1,1.042527807E1
2.873133890E-1,9.798609018E-1,9.308080077E-1,1.033400249E1,1.042200261E1
2.897867220E-1,7.549355626E-1,1.002592683E0,1.026221848E1,1.033867728E1
2.922600550E-1,6.065805554E-1,1.098903775E0,1.016650486E1,1.024369809E1
2.947333890E-1,4.151547253E-1,1.189831018E0,1.007079220E1,1.014933036E1
2.972067220E-1,2.667997181E-1,1.309472203E0,1.000857925E1,1.009740354E1
2.996800550E-1,3.433700502E-1,1.505683661E0,1.020000458E1,1.031625318E1
3.021533890E-1,2.566302419E-1,1.596610904E0,9.802796364E0,9.935282684E0
3.046280760E-1,6.520441920E-2,1.553540111E0,9.261420250E0,9.391040599E0
3.071014090E-1,2.991028363E-3,1.476969719E0,9.069993973E0,9.189463486E0
3.095747950E-1,-9.750752151E-2,1.433898926E0,8.950352669E0,9.065008921E0
3.120481800E-1,-1.501496136E-1,1.376471281E0,8.825926781E0,8.933879428E0
3.145215660E-1,-1.262213886E-1,1.347757339E0,8.840283394E0,8.943321093E0
3.169948990E-1,2.667997181E-1,1.218544960E0,9.223134995E0,9.307107662E0
3.194682840E-1,2.327020019E-1,1.376471281E0,9.156135559E0,9.261945896E0
3.219416700E-1,-1.136590727E-2,1.654038668E0,8.878568649E0,9.031331815E0
3.244160970E-1,-1.022931710E-1,1.902892232E0,8.806783676E0,9.010599395E0
3.268894820E-1,1.848455518E-1,2.195414782E0,9.452845573E0,9.706199224E0
3.293628680E-1,6.831508875E-1,2.468196630E0,1.036750221E1,1.067912880E1
3.318362530E-1,3.816552162E-1,2.736192703E0,9.611370087E0,1.000054229E1
3.343096910E-1,1.704886109E-1,2.913261652E0,9.079565048E0,9.537015324E0
3.367830760E-1,1.256231871E-2,2.999403238E0,8.821140289E0,9.317139776E0
3.392564620E-1,-1.549352705E-1,2.965903759E0,8.634500504E0,9.131001533E0
3.417298470E-1,-2.458625287E-1,2.745764017E0,8.389834404E0,8.831137512E0
3.442040660E-1,-2.841476798E-1,2.396411896E0,8.318049431E0,8.661032052E0
3.466774510E-1,-2.506481707E-1,1.945963025E0,8.255836487E0,8.485778261E0
3.491508890E-1,-1.788634956E-1,1.534397483E0,8.227122307E0,8.370896561E0
3.516242740E-1,-1.310070455E-1,1.113260746E0,8.164909363E0,8.241496056E0
3.540977120E-1,-1.794616925E-3,8.255237937E-1,7.983054638E0,8.025624842E0
3.565711490E-1,3.649054468E-2,7.968099117E-1,7.796414375E0,7.837111375E0
3.590445340E-1,-2.362912297E-1,1.285543919E0,7.111468792E0,7.230590923E0
3.615179720E-1,-2.650051117E-1,1.314257860E0,6.728617191E0,6.860888480E0
3.639920870E-1,-1.214357466E-1,1.079761267E0,6.790830612E0,6.877209568E0
3.664655240E-1,-7.357929647E-2,8.733802438E-1,6.814758778E0,6.870891075E0
3.689389620E-1,-1.022931710E-1,6.197410822E-1,6.790830612E0,6.819818422E0
3.714123470E-1,-1.405783296E-1,3.804588020E-1,6.699903488E0,6.712169390E0
3.738857840E-1,-2.554338276E-1,1.124626622E-1,6.608976364E0,6.614866807E0
3.763592220E-1,-4.229314029E-1,-8.434699476E-2,6.474380016E0,6.488727301E0
3.788326590E-1,-6.334998012E-1,-2.183450609E-1,6.416952133E0,6.451842469E0
3.813060970E-1,-7.004988194E-1,-2.901297510E-1,6.311667919E0,6.357045366E0
3.837801070E-1,-4.277170599E-1,-2.518445849E-1,6.187241077E0,6.207118472E0
3.862535450E-1,4.127619043E-2,-1.226321608E-1,5.837889194E0,5.839322959E0
3.887269820E-1,-1.794616925E-3,2.392822644E-3,5.286941528E0,5.286942374E0
3.912004200E-1,-1.166501045E-1,7.896314561E-2,4.765306473E0,4.767387986E0
3.936739090E-1,-2.123630047E-1,6.460621208E-2,4.487739086E0,4.493225358E0
3.961473470E-1,-4.516452849E-1,1.746760458E-1,3.869792461E0,3.899972933E0
3.986207840E-1,-5.330012441E-1,2.177468538E-1,3.577867985E0,3.623898913E0
4.010942220E-1,-6.382854581E-1,1.842473447E-1,3.266202927E0,3.333082202E0
4.035681280E-1,-7.920243144E-1,1.842473447E-1,2.892922640E0,3.005037604E0
4.060415660E-1,-8.829515576E-1,1.172483116E-1,2.677568436E0,2.821829787E0
4.085150030E-1,-9.978070259E-1,5.982056633E-2,2.476571321E0,2.670693332E0
4.109884930E-1,-1.170090318E0,-9.870393574E-2,2.562713146E0,2.818927542E0
4.134619300E-1,-1.337587833E0,-2.422732860E-1,2.658426046E0,2.985810878E0
4.159354200E-1,-1.476371527E0,-3.523431420E-1,2.821137905E0,3.203535181E0
4.184088570E-1,-1.663011789E0,-5.533402562E-1,3.098705292E0,3.560023614E0
4.208823470E-1,-1.888535261E0,-7.112665176E-1,3.223132133E0,3.802768234E0
4.233560970E-1,-2.065604210E0,-8.691928387E-1,3.405584812E0,4.076791000E0
4.258295340E-1,-2.276172638E0,-9.984052777E-1,3.601796389E0,4.376152671E0
4.283030240E-1,-2.515454769E0,-1.171286702E0,3.898506403E0,4.785162213E0
4.307764620E-1,-2.673381090E0,-1.467996716E0,4.003790379E0,5.033122113E0
4.332499510E-1,-2.884547710E0,-1.664208174E0,4.223930359E0,5.378828127E0
4.357233890E-1,-3.018545866E0,-1.817348838E0,4.593023300E0,5.788802897E0
4.381968780E-1,-3.085544825E0,-1.903490424E0,4.846662045E0,6.052602385E0
4.406703680E-1,-3.142972469E0,-1.841277003E0,5.277370453E0,6.412426673E0
4.431441180E-1,-3.229114056E0,-1.759921074E0,5.813961029E0,6.879436214E0
4.456175550E-1,-3.272184849E0,-1.755135417E0,6.378666878E0,7.380723891E0
4.480910450E-1,-3.358326674E0,-1.783849239E0,6.867401123E0,7.849947410E0
4.505645340E-1,-3.458825111E0,-1.841277003E0,7.417750359E0,8.389087706E0
4.530380240E-1,-3.497110367E0,-1.922633052E0,7.805985451E0,8.766966843E0
4.555114620E-1,-3.521038532E0,-1.889133453E0,8.150551796E0,9.077336180E0
4.579849510E-1,-3.559323788E0,-1.960918188E0,8.562117577E0,9.477544163E0
4.604584410E-1,-3.525824070E0,-2.018345833E0,8.797212601E0,9.690000248E0
4.629321390E-1,-3.611965895E0,-1.807777524E0,8.979066849E0,9.845709658E0
4.654055760E-1,-3.631108284E0,-1.755135417E0,9.352347374E0,1.018488336E1
4.678790660E-1,-3.544966698E0,-1.869990945E0,9.788438797E0,1.057720138E1
4.703525550E-1,-3.477967739E0,-1.960918188E0,1.016650486E1,1.092242101E1
4.728260450E-1,-3.439682484E0,-2.003988981E0,1.042971611E1,1.116361794E1
4.752995340E-1,-3.454039574E0,-2.003988981E0,1.062592697E1,1.135150586E1
4.777729720E-1,-3.458825111E0,-1.984846354E0,1.082273674E1,1.153406766E1
4.802464620E-1,-3.516252756E0,-1.951346874E0,1.089930725E1,1.161751637E1
4.827201590E-1,-3.554538012E0,-1.855633974E0,1.102373409E1,1.173033807E1
4.851936490E-1,-3.564109325E0,-1.932204247E0,1.118166065E1,1.189394062E1
4.876670870E-1,-3.425325632E0,-2.363510609E0,1.144008541E1,1.217352013E1
4.901405760E-1,-3.674179077E0,-1.908276081E0,1.059242725E1,1.137280197E1
4.926140660E-1,-3.879961967E0,-1.645065546E0,1.018086243E1,1.101863446E1
4.950875550E-1,-4.062414646E0,-1.491924882E0,9.745368004E0,1.066307883E1
4.975610450E-1,-4.162913322E0,-1.587637782E0,9.740582466E0,1.071118051E1
5.000345340E-1,-4.182055950E0,-1.865205288E0,9.836296082E0,1.084994485E1
5.025081280E-1,-4.320839405E0,-2.008774519E0,9.879366875E0,1.096844192E1
5.049816180E-1,-4.564907551E0,-2.008774519E0,9.850652695E0,1.104123700E1
5.074551070E-1,-4.842474937E0,-2.056631088E0,9.620942116E0,1.096548322E1
5.099285970E-1,-5.067998409E0,-2.148156643E0,9.328418732E0,1.083137022E1
5.124020870E-1,-5.235496044E0,-2.172084808E0,9.041280746E0,1.067113531E1
5.148755240E-1,-5.359922886E0,-2.157727718E0,8.782855988E0,1.051299774E1
5.173490140E-1,-5.455635548E0,-2.186441660E0,8.490332603E0,1.032619165E1
5.198225030E-1,-5.316852093E0,-2.444866419E0,8.294121742E0,1.015080014E1
5.222961490E-1,-5.426921844E0,-2.061416626E0,7.581060410E0,9.548476116E0
5.247696390E-1,-5.465207100E0,-1.855633974E0,7.317251682E0,9.319551399E0
5.272431280E-1,-5.422136307E0,-2.023131609E0,7.077969551E0,9.142771823E0
5.297166180E-1,-5.450850010E0,-2.176870346E0,6.891329288E0,9.052124043E0
5.321901070E-1,-5.450850010E0,-2.368296146E0,6.781259537E0,9.016988043E0
5.346635970E-1,-5.469992638E0,-2.483151674E0,6.695117950E0,8.995080103E0
5.371370340E-1,-5.618347645E0,-2.487937450E0,6.580262184E0,9.003083551E0
5.396105760E-1,-5.714060307E0,-2.449652195E0,6.436094761E0,8.948441028E0
5.420655760E-1,-5.843272686E0,-2.382653236E0,6.373881340E0,8.969238288E0
5.445205760E-1,-5.785845280E0,-2.306082726E0,6.647261143E0,9.109341570E0
5.469755760E-1,-5.063212872E0,-2.330011129E0,7.101897717E0,9.027847342E0
5.494305760E-1,-5.024927616E0,-2.636292458E0,6.800402164E0,8.856941067E0
5.518935970E-1,-5.867201328E0,-2.899502754E0,6.738188744E0,9.393314388E0
5.543651590E-1,-6.667002201E0,-2.966501951E0,7.168896675E0,1.022947368E1
5.568367220E-1,-7.150950432E0,-2.779861689E0,7.513463020E0,1.073852176E1
5.593082840E-1,-7.505088329E0,-2.090728760E0,7.345965385E0,1.070797390E1
5.618532840E-1,-7.854440212E0,-1.994417667E0,7.557132244E0,1.108062185E1
5.643458890E-1,-8.185248375E0,-1.946561217E0,7.470392227E0,1.125140665E1
5.668197950E-1,-8.615956306E0,-1.692921996E0,7.533204079E0,1.156934966E1
5.692936490E-1,-8.960522652E0,-1.568495274E0,7.892127514E0,1.204312336E1
5.717676070E-1,-9.214759827E0,-1.444068432E0,8.274978638E0,1.246885736E1
5.742414620E-1,-9.449256897E0,-1.405783296E0,8.830712318E0,1.300946435E1
5.767153680E-1,-9.564111710E0,-1.453639746E0,9.471988678E0,1.353897599E1
5.791892220E-1,-9.726823807E0,-1.501496196E0,1.007079220E1,1.408142208E1
5.816599510E-1,-9.659825325E0,-2.133799553E0,1.092802143E1,1.474065732E1
5.841338050E-1,-9.693324089E0,-2.282154560E0,1.078445148E1,1.467900389E1
5.866076590E-1,-1.025384331E1,-1.176072359E0,9.975079536E0,1.435362883E1
5.890814620E-1,-1.077069283E1,-4.193421602E-1,9.740582466E0,1.452799431E1
5.915552120E-1,-1.111047363E1,-6.041877344E-2,9.692726135E0,1.474432822E1
5.940290660E-1,-1.116311550E1,-2.997010350E-1,1.031486034E1,1.520201672E1
5.965028680E-1,-1.124985600E1,-4.863412082E-1,1.077009487E1,1.558174352E1
5.989767220E-1,-1.141735363E1,-6.059823632E-1,1.107637596E1,1.591883422E1
6.014480760E-1,-1.166142082E1,-7.543373108E-1,1.121994495E1,1.620015201E1
6.039218260E-1,-1.189113235E1,-8.979067206E-1,1.128694439E1,1.641951214E1
6.063955760E-1,-1.210170078E1,-1.017547846E0,1.113858986E1,1.647891834E1
6.088693260E-1,-1.212084293E1,-1.400997639E0,1.113380337E1,1.651784505E1
6.113430760E-1,-1.249950695E1,-8.931210637E-1,1.011386299E1,1.610358854E1
6.138168260E-1,-1.283450222E1,-3.906283081E-1,9.582057953E0,1.602163763E1
6.162905760E-1,-1.303071404E1,-3.858426511E-1,9.510273933E0,1.613671878E1
6.187643260E-1,-1.290628719E1,-9.601200819E-1,9.908080101E0,1.629920645E1
6.212360450E-1,-1.285843086E1,-1.496710539E0,1.013779163E1,1.644245133E1
6.237097430E-1,-1.275314617E1,-1.951346874E0,1.013779163E1,1.640808676E1
6.261834410E-1,-1.271007538E1,-2.344367981E0,9.874580383E0,1.626497510E1
6.286571390E-1,-1.248036480E1,-2.736790895E0,9.702297211E0,1.604319485E1
6.311308370E-1,-1.207298660E1,-3.129812002E0,9.242277145E0,1.552328623E1
6.336045340E-1,-1.147956657E1,-3.531806231E0,8.749356270E0,1.485952015E1
6.360782320E-1,-1.080419254E1,-3.857230186E0,8.255836487E0,1.413391797E1
6.385519300E-1,-1.002353382E1,-4.091726780E0,7.825128078E0,1.335837145E1
6.410240660E-1,-9.200403214E0,-4.231108665E0,7.436892986E0,1.256411864E1
6.434977640E-1,-8.443673134E0,-4.278964996E0,7.106683254E0,1.183681141E1
6.459714620E-1,-7.787441254E0,-4.341178417E0,6.781259537E0,1.120158704E1
6.484451070E-1,-7.179664135E0,-4.312464714E0,6.402595043E0,1.054220813E1
6.509187010E-1,-6.724429607E0,-4.245465755E0,6.081956863E0,1.001159989E1
6.533923990E-1,-6.499504566E0,-4.173680782E0,5.823532104E0,9.673504900E0
6.558660970E-1,-6.418148518E0,-4.039084435E0,5.746961594E0,9.514956701E0
6.583397430E-1,-6.403791428E0,-3.929014683E0,5.861817360E0,9.529249907E0
6.608121390E-1,-6.676573277E0,-3.699303865E0,5.790032387E0,9.580498674E0
6.632857840E-1,-7.079165936E0,-3.479164124E0,6.139384747E0,9.995559935E0
6.657593780E-1,-7.533802032E0,-3.292523861E0,6.182455540E0,1.028696471E1
6.682330240E-1,-8.079963684E0,-2.976073265E0,6.172883987E0,1.059468366E1
6.707066700E-1,-8.596813202E0,-2.770290375E0,6.297310829E0,1.101071431E1
6.731802640E-1,-9.166903496E0,-2.545365095E0,6.522834301E0,1.153509300E1
6.756539090E-1,-9.659825325E0,-2.363510609E0,6.943971157E0,1.212918559E1
6.781275550E-1,-1.022512913E1,-2.186441660E0,7.188039303E0,1.268864460E1
6.806001590E-1,-1.070847988E1,-1.989632010E0,7.460821152E0,1.320204640E1
6.830737530E-1,-1.123549843E1,-1.941775560E0,7.705487251E0,1.376159333E1
6.855473470E-1,-1.167099285E1,-1.889133453E0,7.695915699E0,1.410702016E1
6.880209410E-1,-1.213520050E1,-1.869990945E0,7.561917782E0,1.442021352E1
6.904945870E-1,-1.255693531E1,-1.855633974E0,7.700701237E0,1.484657541E1
6.929681800E-1,-1.289671612E1,-1.783849239E0,7.944769382E0,1.525210691E1
6.954417740E-1,-1.320299721E1,-1.582852125E0,7.748558044E0,1.539040961E1
6.979153680E-1,-1.337587833E1,-1.381855130E0,7.724629879E0,1.550785451E1
7.003881280E-1,-1.337587833E1,-1.266999602E0,7.667201996E0,1.546949888E1
7.028617220E-1,-1.320299721E1,-1.372283816E0,7.705487251E0,1.534851237E1
7.053352640E-1,-1.289193058E1,-1.439282775E0,7.571488857E0,1.502001506E1
7.078088570E-1,-1.252343559E1,-1.592423439E0,7.456035137E0,1.466167492E1
7.102824510E-1,-1.207777214E1,-1.841277003E0,7.288537979E0,1.422623164E1
7.127560450E-1,-1.163749313E1,-1.989632010E0,7.235895634E0,1.384731265E1
7.152296390E-1,-1.104347515E1,-2.440080881E0,7.231110096E0,1.342390745E1
7.177031800E-1,-1.041655540E1,-3.196810961E0,7.245467186E0,1.308514507E1
7.201761490E-1,-9.803394318E0,-3.742374659E0,7.470392227E0,1.288094206E1
7.226496910E-1,-9.272188187E0,-4.134797573E0,7.188039303E0,1.243937031E1
7.251232840E-1,-8.850452423E0,-4.240679741E0,7.087540627E0,1.210566417E1
7.275968260E-1,-8.510671616E0,-4.288536549E0,6.781259537E0,1.169651905E1
7.300704200E-1,-8.213961601E0,-4.484747887E0,6.570691109E0,1.143486381E1
7.325439620E-1,-8.036294937E0,-4.609174728E0,6.407381058E0,1.126414932E1
7.350175550E-1,-7.715656757E0,-4.968098164E0,6.086742401E0,1.101189319E1
7.374910970E-1,-7.395018578E0,-5.428118229E0,6.134599209E0,1.103558221E1
7.399641700E-1,-7.160521984E0,-5.791827202E0,6.182455540E0,1.109238901E1
7.424377120E-1,-6.762714863E0,-6.457630157E0,5.924030781E0,1.106930171E1
7.449112530E-1,-6.365506649E0,-7.118049145E0,5.780461311E0,1.116243842E1
7.473847950E-1,-6.030511379E0,-7.597211838E0,5.459823132E0,1.113078451E1
7.498583890E-1,-5.857629776E0,-7.831708431E0,4.923232555E0,1.094923296E1
7.523319300E-1,-5.757131100E0,-7.884350777E0,4.329214573E0,1.067940282E1
7.548054720E-1,-5.771488190E0,-7.707281590E0,3.802793503E0,1.035246366E1
7.572790140E-1,-5.910272121E0,-7.377072334E0,3.558725595E0,1.010034854E1
7.597521910E-1,-6.087938786E0,-7.012764931E0,3.419941664E0,9.896356482E0
7.622257320E-1,-6.360720634E0,-6.763911247E0,3.510869026E0,9.926503094E0
7.646992740E-1,-6.657430649E0,-6.577271461E0,3.898506403E0,1.013805873E1
7.671728160E-1,-7.016354084E0,-6.481558323E0,4.425525665E0,1.052735011E1
7.696463570E-1,-7.395018578E0,-6.419344902E0,5.090730190E0,1.103674873E1
7.721198990E-1,-7.753942013E0,-6.385845661E0,5.737390518E0,1.156807207E1
7.745934410E-1,-8.075178146E0,-6.318846226E0,6.297310829E0,1.203297317E1
7.770669820E-1,-8.347960472E0,-6.232106686E0,6.661618233E0,1.236546624E1
7.795401590E-1,-8.635098457E0,-6.050251961E0,6.819544315E0,1.255693668E1
7.820137010E-1,-8.874381065E0,-5.820540905E0,6.723831654E0,1.256356828E1
7.844871910E-1,-9.061020851E0,-5.629115105E0,6.513263226E0,1.249846525E1
7.869607320E-1,-9.219545364E0,-5.404190063E0,6.239883423E0,1.237503261E1
7.894342740E-1,-9.305686951E0,-5.303691387E0,5.991029739E0,1.227262764E1
7.919078160E-1,-9.343972206E0,-5.327619553E0,5.847460270E0,1.224279945E1
7.943813570E-1,-9.324830055E0,-5.447260857E0,5.713462353E0,1.221755943E1
7.968548990E-1,-9.243474007E0,-5.653043270E0,5.560321808E0,1.217850108E1
7.993281800E-1,-9.142974854E0,-6.031109333E0,5.608178139E0,1.230528061E1
8.018016700E-1,-8.922237396E0,-6.395416737E0,5.699105263E0,1.236881062E1
8.042752120E-1,-8.706883430E0,-6.644270420E0,5.732604980E0,1.236199451E1
8.067487530E-1,-8.587242126E0,-6.811768055E0,5.775675774E0,1.238948514E1
8.092222950E-1,-8.448458672E0,-6.869195461E0,5.675177097E0,1.227884096E1
8.116957840E-1,-8.314460754E0,-6.859624386E0,5.598606586E0,1.214615577E1
8.141693260E-1,-8.185248375E0,-6.816553593E0,5.545964718E0,1.200922223E1
8.166428680E-1,-8.041080475E0,-6.811768055E0,5.569892883E0,1.191985176E1
8.191162010E-1,-7.854440212E0,-6.754340172E0,5.593821049E0,1.177302748E1
8.215896910E-1,-7.648657799E0,-6.687341213E0,5.746961594E0,1.167262036E1
8.240632320E-1,-7.404589653E0,-6.586842537E0,5.928816319E0,1.154838974E1
8.265367740E-1,-7.237092018E0,-6.333203316E0,5.885745525E0,1.127505945E1
8.290102640E-1,-7.069594383E0,-6.093322754E0,5.742176056E0,1.095811721E1
8.314838050E-1,-6.997211456E0,-5.873183250E0,5.531607628E0,1.067960358E1
8.339573470E-1,-6.891927242E0,-5.849255085E0,5.406582832E0,1.053297603E1
8.364308370E-1,-6.686144829E0,-5.954539299E0,5.420939922E0,1.046650183E1
8.389041700E-1,-6.590431690E0,-6.155536175E0,5.517251015E0,1.057187184E1
8.413777120E-1,-6.623931408E0,-6.251847267E0,5.522036552E0,1.065152333E1
8.438512010E-1,-6.729215622E0,-6.318846226E0,5.430510998E0,1.070983708E1
8.463246910E-1,-7.983652592E0,-5.571687698E0,1.122473145E1,1.485856684E1
8.487982320E-1,-1.277707481E1,-4.019941807E0,3.495136261E1,3.743008578E1
8.512717220E-1,-1.422772312E1,-3.287738323E0,3.318904877E1,3.625948547E1
8.537452640E-1,-1.337587833E1,-2.674577475E0,1.894816399E1,2.334738539E1
8.562187530E-1,-9.468399048E0,-5.212764263E0,9.069993973E0,1.410986472E1
8.586921910E-1,-6.552146435E0,-6.960123062E0,2.342573404E0,9.841828392E0
8.611656800E-1,-5.187639713E0,-7.534998417E0,-1.024128079E0,9.205250961E0
8.636392220E-1,-4.301696777E0,-8.066205025E0,-1.674975872E0,9.293750741E0
8.661127120E-1,-3.769891977E0,-8.444869041E0,-1.502692580E0,9.369417465E0
8.685862530E-1,-3.602394581E0,-8.727222443E0,-1.244267821E0,9.523122423E0
8.710597430E-1,-3.793820381E0,-8.775078773E0,-1.316052437E0,9.650237022E0
8.735332840E-1,-4.215555191E0,-8.717651367E0,-1.722832322E0,9.835471628E0
8.760067740E-1,-4.808975220E0,-8.478368759E0,-2.115853310E0,9.974257602E0
8.784802120E-1,-5.546562672E0,-8.047062874E0,-2.388635159E0,1.006107133E1
8.809537010E-1,-6.308078766E0,-7.645068169E0,-2.508276224E0,1.022400971E1
8.834272430E-1,-7.036095142E0,-7.305287361E0,-2.235494614E0,1.038611065E1
8.859007320E-1,-7.634300709E0,-7.060621262E0,-1.612762451E0,1.052311373E1
8.883742740E-1,-8.170890808E0,-6.893123627E0,-7.890332937E-1,1.071919696E1
8.908477640E-1,-8.596813202E0,-6.620342255E0,1.680957973E-1,1.085183786E1
8.933212530E-1,-8.970093727E0,-6.381059647E0,9.918249846E-1,1.105279243E1
8.957947950E-1,-9.315258980E0,-6.088537216E0,1.537986755E0,1.123431077E1
8.982681800E-1,-9.640682220E0,-5.858826160E0,1.762912035E0,1.141825103E1
9.007416700E-1,-9.822537422E0,-5.662614822E0,1.872981906E0,1.149154077E1
9.032151590E-1,-9.870393753E0,-5.552545071E0,1.853839397E0,1.147572003E1
9.056887010E-1,-9.985248566E0,-5.408975601E0,1.782054663E0,1.149512613E1
9.081621910E-1,-9.966106415E0,-5.351547718E0,1.700698733E0,1.143917463E1
9.106357320E-1,-9.894321442E0,-5.337191105E0,1.738983870E0,1.137573165E1
9.131092220E-1,-9.812965393E0,-5.365904808E0,1.743769526E0,1.131936201E1
9.155827120E-1,-9.731609344E0,-5.346762180E0,1.782054663E0,1.124579055E1
9.180562010E-1,-9.688538551E0,-5.251049519E0,1.767697692E0,1.116091642E1
9.205297430E-1,-9.607182503E0,-5.121238708E0,1.710269928E0,1.102043850E1
9.230032320E-1,-9.468399048E0,-5.082953453E0,1.648056626E0,1.087212431E1
9.254767740E-1,-9.367900848E0,-4.982454777E0,1.509272933E0,1.071729101E1
9.279502120E-1,-9.329615593E0,-4.905884743E0,1.394417405E0,1.063267756E1
9.304237530E-1,-9.219545364E0,-4.858027935E0,1.356132269E0,1.050902217E1
9.328972950E-1,-9.114261627E0,-4.862813950E0,1.317847013E0,1.041409839E1
9.353707840E-1,-9.056235313E0,-4.939383984E0,1.188036442E0,1.038385009E1
9.378442220E-1,-8.912666321E0,-5.030311584E0,1.082752228E0,1.029135598E1
9.403177640E-1,-8.735597610E0,-5.193023205E0,1.015753269E0,1.021322233E1
9.427912530E-1,-8.620741844E0,-5.408975601E0,9.726824164E-1,1.022351789E1
9.452647950E-1,-8.515457153E0,-5.629115105E0,9.678967595E-1,1.025362236E1
9.477382320E-1,-8.367102623E0,-5.892325878E0,1.097109199E0,1.029230582E1
9.502117740E-1,-8.280961037E0,-6.040680885E0,1.192822099E0,1.031925219E1
9.526853160E-1,-8.218747139E0,-6.203392506E0,1.317847013E0,1.038106950E1
9.551588050E-1,-8.199604988E0,-6.256632805E0,1.399203062E0,1.040849390E1
9.576322430E-1,-8.252246857E0,-6.174678802E0,1.542772412E0,1.042143863E1
9.601057840E-1,-8.362317085E0,-6.069394588E0,1.638485312E0,1.046186082E1
9.625792740E-1,-8.429315567E0,-5.944967747E0,1.652842283E0,1.044642954E1
9.650528160E-1,-8.525029182E0,-5.873183250E0,1.671984792E0,1.048646448E1
9.675262530E-1,-8.596813202E0,-5.767899036E0,1.705484390E0,1.049202238E1
9.699997950E-1,-8.625527382E0,-5.638686657E0,1.753340840E0,1.045316765E1
9.724733370E-1,-8.659027100E0,-5.471189022E0,1.705484390E0,1.038370534E1
9.749468260E-1,-8.702097893E0,-5.255835056E0,1.533201098E0,1.028109992E1
9.774202640E-1,-8.663812637E0,-5.035097122E0,1.317847013E0,1.010695667E1
9.798938050E-1,-8.611170769E0,-4.872385025E0,1.125823021E0,9.957905167E0
9.823672950E-1,-8.443673134E0,-4.814957142E0,9.008977413E-1,9.761713221E0
9.848408370E-1,-8.347960472E0,-4.762315273E0,7.238288522E-1,9.638050582E0
9.873142740E-1,-8.261817932E0,-4.642673969E0,5.276173949E-1,9.491598245E0
9.897878160E-1,-8.233104706E0,-4.479962349E0,3.122633696E-1,9.378250591E0
9.922613570E-1,-8.199604988E0,-4.446462631E0,5.324030295E-2,9.327774998E0
9.947348470E-1,-8.199604988E0,-4.479962349E0,-5.682953820E-2,9.343811546E0
9.972082320E-1,-8.252246857E0,-4.365106583E0,5.324030295E-2,9.335768216E0
9.996817740E-1,-8.276175499E0,-4.125226021E0,2.159522474E-1,9.249821943E0
1.002155264E0,-8.367102623E0,-3.895515203E0,3.936193287E-1,9.237877526E0
1.004628753E0,-8.491529465E0,-3.603590965E0,5.898307562E-1,9.243367396E0
1.007102243E0,-8.668598175E0,-3.263810158E0,7.334001660E-1,9.291658994E0
1.009575784E0,-8.812167168E0,-3.000001431E0,7.716853023E-1,9.340759979E0
1.012049274E0,-8.970093727E0,-2.784647465E0,7.860422134E-1,9.425216461E0
1.014522816E0,-8.989236832E0,-2.851646423E0,8.338986635E-1,9.467505116E0
1.016996253E0,-9.147761345E0,-2.665006161E0,2.605783939E0,9.877950465E0
1.019469795E0,-9.382257462E0,-2.612364054E0,2.912065268E0,1.016520168E1
1.021943284E0,-9.142974854E0,-3.009572744E0,1.959123492E0,9.822916173E0
1.024416774E0,-8.860024452E0,-3.359523058E0,1.293918848E0,9.563506389E0
1.026890264E0,-8.639883995E0,-3.656233072E0,9.535398483E-1,9.429998620E0
1.029363805E0,-8.515457153E0,-4.010370731E0,1.020538807E0,9.467712680E0
1.031837295E0,-8.438887596E0,-4.278964996E0,1.456630826E0,9.573198978E0
1.034310837E0,-8.362317085E0,-4.532604218E0,1.628913999E0,9.650192166E0
1.036784274E0,-8.261817932E0,-4.613960266E0,1.566700578E0,9.591705562E0
1.039257816E0,-8.190033913E0,-4.657031059E0,1.528415442E0,9.544665921E0
1.041731305E0,-8.137392044E0,-4.647459984E0,1.490130305E0,9.488757659E0
1.044204795E0,-8.118248940E0,-4.513461590E0,1.351346612E0,9.386343219E0
1.046678284E0,-8.175676346E0,-4.365106583E0,1.322632670E0,9.361901322E0
1.049151826E0,-8.204390526E0,-4.235894203E0,1.303490162E0,9.324908053E0
1.051625316E0,-8.252246857E0,-4.164109707E0,1.216750264E0,9.323082593E0
1.054098805E0,-8.285746574E0,-4.149154663E0,1.380060434E0,9.368759124E0
1.056572243E0,-8.180462837E0,-4.153940201E0,1.389631748E0,9.279346303E0
1.059045732E0,-8.060821533E0,-4.139583111E0,1.341775298E0,9.160423193E0
1.061519222E0,-8.055437088E0,-4.164109707E0,1.351346612E0,9.168206695E0
1.063992712E0,-7.950153351E0,-4.216751575E0,1.327418327E0,9.096591206E0
1.066466253E0,-7.816154957E0,-4.269393921E0,1.054038405E0,8.968333163E0
1.068939743E0,-7.773084164E0,-4.278964996E0,8.195417523E-1,8.910781534E0
1.071413284E0,-8.204390526E0,-3.795016766E0,7.334001660E-1,9.069291701E0
1.073886774E0,-8.883952141E0,-3.148954630E0,7.046862841E-1,9.451830704E0
1.076360264E0,-8.998807907E0,-3.287738323E0,6.951149702E-1,9.605777004E0
1.078833805E0,-8.793025017E0,-3.689732552E0,5.467599630E-1,9.551458617E0
1.081307295E0,-8.505886078E0,-3.905086517E0,6.903293133E-1,9.384900279E0
1.083780784E0,-8.266604424E0,-4.034298897E0,5.754738450E-1,9.216479069E0
1.086254274E0,-8.079963684E0,-4.082155228E0,5.946164131E-1,9.072120652E0
1.088727764E0,-8.084749222E0,-4.120440483E0,6.185446382E-1,9.095262350E0
1.091201253E0,-8.280961037E0,-3.852444410E0,1.135394335E0,9.203519105E0
1.093674743E0,-8.410173416E0,-3.574877024E0,1.585843205E0,9.275001957E0
1.096148284E0,-8.362317085E0,-3.373879910E0,1.719841242E0,9.179829333E0
1.098621826E0,-8.161319733E0,-3.335594654E0,1.983051777E0,9.036914619E0
1.101095316E0,-8.228319168E0,-3.364308596E0,2.059622049E0,9.125012419E0
1.103568805E0,-8.218747139E0,-3.287738323E0,2.260619164E0,9.136050942E0
1.106042295E0,-8.103892326E0,-3.235096216E0,2.366501570E0,9.040976056E0
1.108515837E0,-7.931010723E0,-3.263810158E0,2.538784742E0,8.944205711E0
1.110989326E0,-7.820940971E0,-3.206382275E0,2.720639229E0,8.879745649E0
1.113462816E0,-7.897511005E0,-3.120240688E0,3.707080364E0,9.265474994E0
1.115917816E0,-7.844869137E0,-2.990430117E0,3.463012457E0,9.081690335E0
1.118372816E0,-7.864011765E0,-2.789433002E0,3.410370588E0,9.014113659E0
1.120827816E0,-7.864011765E0,-2.837289333E0,3.740580082E0,9.158866259E0
1.123282816E0,-7.830512047E0,-2.909074068E0,3.774079561E0,9.166422824E0
1.125737816E0,-7.835297585E0,-2.952144861E0,3.855435371E0,9.217994870E0
1.128192816E0,-7.926225185E0,-3.033500910E0,3.745365620E0,9.276580032E0
1.130647816E0,-7.926225185E0,-3.239881754E0,3.678366661E0,9.319456034E0
1.133102816E0,-7.806583881E0,-3.555734396E0,3.515654564E0,9.270697169E0
1.135570576E0,-7.658228874E0,-3.818944931E0,3.318845034E0,9.178645991E0
1.138041045E0,-7.476374149E0,-3.976871252E0,3.084348440E0,9.012484712E0
1.140511462E0,-7.198806763E0,-4.072584152E0,2.825923443E0,8.740400665E0
1.142981878E0,-6.906284332E0,-4.015156269E0,2.648854733E0,8.416333794E0
1.145452347E0,-6.667002201E0,-4.019941807E0,2.462214470E0,8.165252634E0
1.147922764E0,-6.475576401E0,-4.082155228E0,2.333002090E0,8.002498346E0
1.150393180E0,-6.360720634E0,-4.000799656E0,2.016551256E0,7.780208471E0
1.152863649E0,-6.154938221E0,-4.019941807E0,1.844268084E0,7.579216411E0
1.155408649E0,-5.997011662E0,-4.024727821E0,1.777269006E0,7.437826835E0
1.157953649E0,-5.790630817E0,-4.077369690E0,1.628913999E0,7.267028944E0
1.160461878E0,-5.761917114E0,-4.101297855E0,1.552343726E0,7.240863483E0
1.162936774E0,-5.594419479E0,-4.144368649E0,1.475773335E0,7.116967594E0
1.165411722E0,-5.441278458E0,-4.144368649E0,1.130608678E0,6.932645868E0
1.167886670E0,-5.235496044E0,-4.153940201E0,1.082752228E0,6.770375943E0
1.170361618E0,-5.058426857E0,-4.183252335E0,9.774680734E-1,6.636469408E0
1.172836566E0,-4.923830986E0,-4.250251293E0,9.008977413E-1,6.566609808E0
1.175300003E0,-4.919044971E0,-4.259822369E0,1.039681435E0,6.589691004E0
1.177774639E0,-4.722833633E0,-4.345963955E0,9.200403094E-1,6.483751568E0
1.180249326E0,-4.655834675E0,-4.408177376E0,1.092323542E0,6.503998387E0
1.182723962E0,-4.545764923E0,-4.470390797E0,1.097109199E0,6.469313812E0
1.185198649E0,-4.411766529E0,-4.523033142E0,1.111466169E0,6.415362013E0
1.187673284E0,-4.153341770E0,-4.752744198E0,1.226321578E0,6.429828138E0
1.190147972E0,-3.990629911E0,-4.939383984E0,1.274178028E0,6.476586360E0
1.192622607E0,-3.894318819E0,-5.135595798E0,1.494915962E0,6.616255512E0
1.195088076E0,-3.750749588E0,-5.432903767E0,1.322632670E0,6.733047081E0
1.197562503E0,-3.602394581E0,-5.380261898E0,5.467599630E-1,6.497954391E0
1.200036930E0,-3.425325632E0,-5.983253002E0,1.782054663E0,7.120947338E0
1.202511357E0,-3.114258766E0,-7.199405193E0,2.026122570E0,8.101556361E0
1.204985784E0,-2.754737139E0,-7.156334400E0,1.432702541E0,7.800918877E0
1.207460159E0,-2.754737139E0,-7.448856831E0,5.802595019E-1,7.963086454E0
1.209934587E0,-2.836092949E0,-7.611568928E0,3.457628787E-1,8.130126489E0
1.212409014E0,-3.018545866E0,-7.640282631E0,1.614557028E0,8.372116353E0
1.214876149E0,-3.750749588E0,-5.868397713E0,7.716853023E-1,7.007261405E0
1.217350368E0,-4.205984116E0,-4.972883701E0,-3.822534084E-1,6.524261825E0
1.219824587E0,-4.689334393E0,-5.854040623E0,1.125823021E0,7.584663877E0
1.222298857E0,-5.460421085E0,-6.141179085E0,2.026122570E0,8.463772897E0
1.224773128E0,-5.848058701E0,-6.290132523E0,1.015753269E0,8.648543948E0
1.227247347E0,-6.135795593E0,-6.414559364E0,7.381857634E-1,8.907271054E0
1.229721566E0,-5.929414749E0,-6.543771744E0,4.127618968E-1,8.840208158E0
1.232195784E0,-5.867201328E0,-6.476772785E0,1.724626899E0,8.907691905E0
1.234664170E0,-6.121438503E0,-6.064609051E0,2.979064286E-1,8.622078666E0
1.237138232E0,-6.202794552E0,-5.954539299E0,2.452643216E-2,8.598360312E0
1.239612295E0,-6.394220352E0,-5.667400360E0,3.409772217E-1,8.551125436E0
1.242086409E0,-6.614359856E0,-5.327619553E0,1.872383654E-1,8.495195383E0
1.244560524E0,-6.561717987E0,-5.121238708E0,3.505485058E-1,8.331033136E0
1.247034587E0,-6.700501442E0,-4.771886349E0,4.941178858E-1,8.240859869E0
1.249508701E0,-7.036095142E0,-4.336392879E0,6.951149702E-1,8.294222259E0
1.251982764E0,-6.858428001E0,-4.278964996E0,9.774680734E-1,8.142666635E0
1.254452191E0,-6.671787739E0,-4.164109707E0,1.015753269E0,7.929963177E0
1.256926201E0,-6.719644070E0,-4.355535507E0,1.341775298E0,8.119400651E0
1.259400159E0,-6.729215622E0,-4.637888432E0,1.289133191E0,8.273706326E0
1.261874118E0,-6.470790863E0,-4.771886349E0,1.423131227E0,8.165006810E0
1.264348076E0,-6.308078766E0,-5.164309502E0,1.719841242E0,8.331854790E0
1.266822087E0,-6.231508255E0,-5.720042706E0,2.284547329E0,8.761834293E0
1.269296045E0,-6.040082455E0,-5.873183250E0,2.533999205E0,8.797614991E0
1.271770003E0,-5.910272121E0,-6.136393547E0,2.624926329E0,8.914980681E0
1.274240212E0,-5.651846886E0,-6.481558323E0,2.577069998E0,8.977486357E0
1.276714118E0,-5.369493961E0,-6.754340172E0,2.648854733E0,9.026018389E0
1.279187972E0,-5.690132141E0,-6.854838848E0,2.236690998E0,9.185271147E0
1.281661878E0,-5.560919762E0,-7.424928665E0,2.639283419E0,9.644646766E0
1.284135732E0,-5.402993679E0,-8.224131584E0,2.950350285E0,1.027293764E1
1.286609639E0,-6.279364586E0,-8.233702660E0,2.926422119E0,1.076049374E1
1.289083493E0,-6.958926678E0,-8.185846329E0,1.916052699E0,1.091356947E1
1.291557347E0,-7.069594383E0,-8.190631866E0,1.686341763E0,1.095031340E1
1.294028232E0,-7.241877556E0,-7.750352383E0,1.207179070E0,1.067567487E1
1.296502034E0,-7.447660446E0,-7.348358154E0,8.673982322E-2,1.046296026E1
1.298975837E0,-7.820940971E0,-7.759923935E0,-4.683950245E-1,1.102737190E1
1.301449639E0,-8.094321251E0,-8.631509781E0,2.500499785E-1,1.183568851E1
1.303923441E0,-8.146963120E0,-8.698508263E0,9.678967595E-1,1.195716849E1
1.306397243E0,-6.509075642E0,-8.233702660E0,1.667199135E0,1.062739282E1
1.308871045E0,-4.014558315E0,-7.788637638E0,1.351346612E0,8.865985134E0
1.311344847E0,-5.699703693E0,-7.108478069E0,3.888336718E-1,9.119664154E0
1.313816253E0,-6.135795593E0,-6.582056999E0,-8.554340899E-2,8.998821010E0
1.316290003E0,-6.097510338E0,-5.882754326E0,-1.142572835E-1,8.473457707E0
1.318763753E0,-6.408577442E0,-6.040680885E0,3.936193287E-1,8.815589973E0
1.321237503E0,-6.375077724E0,-6.145965099E0,5.228317380E-1,8.870617567E0
1.323711253E0,-6.131010056E0,-6.050251961E0,1.116251707E0,8.685669287E0
1.326184951E0,-6.111867428E0,-6.011966705E0,1.868196249E0,8.774327572E0
1.328658701E0,-5.943771362E0,-5.810969830E0,1.509272933E0,8.448295281E0
1.331132451E0,-6.389434814E0,-5.767899036E0,1.686341763E0,8.771390145E0
1.333587451E0,-6.346364021E0,-5.940182209E0,2.169692039E0,8.959333932E0
1.336042451E0,-6.341578007E0,-5.892325878E0,2.188834429E0,8.928947980E0
1.338497451E0,-6.403791428E0,-5.734399319E0,2.303689957E0,8.899374563E0
1.340952451E0,-6.399005890E0,-5.475974560E0,2.557927370E0,8.802077379E0
1.343407451E0,-6.269793510E0,-5.246263504E0,2.538784742E0,8.560316547E0
1.345862451E0,-5.876772404E0,-4.695316315E0,1.494915962E0,7.669238744E0
1.348317451E0,-5.278566837E0,-4.178466320E0,7.812566161E-1,6.777404411E0
1.350772451E0,-4.741976261E0,-4.149154663E0,1.968096644E-1,6.304011209E0
1.353317451E0,-4.737190723E0,-5.236692429E0,1.393819153E-1,7.062814656E0
1.355866566E0,-5.000999451E0,-6.409773827E0,4.510470629E-1,8.142397649E0
1.358341045E0,-5.173282623E0,-7.420143127E0,9.583254457E-1,9.096140104E0
1.360815524E0,-5.072783947E0,-8.080561638E0,1.514058471E0,9.660278796E0
1.363290003E0,-5.283352375E0,-9.464810371E0,1.916052699E0,1.100762034E1
1.365764482E0,-5.077569485E0,-8.976076126E0,2.169692039E0,1.053846374E1
1.368238962E0,-4.311268330E0,-7.855636597E0,2.207977057E0,9.228934046E0
1.370713493E0,-3.981058598E0,-7.726424217E0,9.966106415E-1,8.748696561E0
1.373180107E0,-3.516252756E0,-8.487939835E0,2.111666054E-1,9.189872002E0
1.375654430E0,-3.080759048E0,-9.737591743E0,5.898307562E-1,1.023033086E1
1.378128701E0,-2.870190859E0,-9.598808289E0,1.259821177E0,1.009763663E1
1.380603024E0,-2.328814745E0,-8.459226608E0,1.824527234E-1,8.775829415E0
1.383077243E0,-1.337587833E0,-8.349156380E0,-7.268198729E-1,8.486802731E0
1.385551566E0,-1.667797327E0,-9.201001167E0,1.686341763E0,9.501774516E0
1.388025837E0,-1.806581140E0,-9.751948357E0,2.663211584E0,1.026922237E1
1.390500159E0,-2.429313183E0,-1.030708313E1,3.299702406E0,1.109168883E1
1.392968180E0,-2.807379246E0,-1.098245811E1,1.557129383E0,1.144204599E1
1.395442347E0,-3.047259569E0,-1.153819084E1,1.447059512E0,1.202121541E1
1.397916462E0,-3.023331404E0,-1.190190029E1,1.983051777E0,1.243898138E1
1.400390576E0,-3.401397467E0,-1.227517986E1,3.463012457E0,1.320007578E1
1.402864691E0,-3.650250912E0,-1.138923740E1,3.999004841E0,1.261075335E1
1.405338857E0,-3.458825111E0,-1.097767162E1,4.142574310E0,1.223248410E1
1.407812972E0,-3.109472990E0,-1.094417286E1,4.636094093E0,1.228564651E1
1.410287087E0,-3.248256683E0,-1.005344391E1,4.784449100E0,1.159801100E1
1.412756253E0,-3.473181963E0,-9.445667267E0,4.262215137E0,1.092932299E1
1.415230264E0,-3.410968781E0,-9.388239861E0,3.372085333E0,1.054251939E1
1.417704274E0,-3.712464333E0,-9.306285858E0,2.644068956E0,1.036245379E1
1.420178284E0,-4.344767570E0,-8.870791435E0,2.749353170E0,1.025314044E1
1.422652243E0,-4.282554150E0,-9.047860146E0,2.212762833E0,1.025184679E1
1.425126305E0,-4.493122578E0,-9.550951958E0,8.769695163E-1,1.059140733E1
1.427600316E0,-4.775475979E0,-9.981659889E0,2.207378894E-1,1.106740395E1
1.430074274E0,-4.459623337E0,-1.119302654E1,-2.044068813E0,1.222089607E1
1.432544274E0,-4.000201225E0,-1.357328606E1,-2.747558594E0,1.441474184E1
1.435018128E0,-3.990629911E0,-1.464108372E1,-1.158126116E0,1.521932047E1
1.437492034E0,-4.579264164E0,-1.427677631E1,-8.853443861E-1,1.501931546E1
1.439965941E0,-5.474778175E0,-1.360200024E1,-8.183453679E-1,1.468527479E1
1.442439847E0,-5.934200287E0,-1.409970760E1,-4.588237405E-1,1.530447669E1
1.444913753E0,-5.828916073E0,-1.513400459E1,2.159522474E-1,1.621915513E1
1.447387659E0,-6.154938221E0,-1.464586926E1,4.175475538E-1,1.589210800E1
1.449861566E0,-7.026523590E0,-1.356850052E1,8.578268886E-1,1.530398991E1
1.452332243E0,-6.628716946E0,-1.444427395E1,2.313261271E0,1.606014060E1
1.454806097E0,-6.753143787E0,-1.436770344E1,3.180061340E0,1.619100501E1
1.457279951E0,-7.332805157E0,-1.338126278E1,2.739781857E0,1.550272975E1
1.459753753E0,-7.634300709E0,-1.301755333E1,3.079562664E0,1.540204364E1
1.462227555E0,-7.217949390E0,-1.380778313E1,3.601796389E0,1.599145414E1
1.464701409E0,-6.925426960E0,-1.398485184E1,3.491726398E0,1.599155317E1
1.467175212E0,-7.011568546E0,-1.297926807E1,2.691925526E0,1.499566458E1
1.469649066E0,-7.031309128E0,-1.195454216E1,2.845066071E0,1.415785249E1
1.472120316E0,-6.154938221E0,-1.271127224E1,3.927220106E0,1.465888005E1
1.474594066E0,-5.489135265E0,-1.317547989E1,4.223930359E0,1.488507521E1
1.477067816E0,-5.690132141E0,-1.240439224E1,3.089133978E0,1.399247296E1
1.479541566E0,-5.819344521E0,-1.152861977E1,1.805982947E0,1.303976299E1
1.482015368E0,-4.775475979E0,-1.341476154E1,2.639283419E0,1.448194790E1
1.484489118E0,-4.119842529E0,-1.449691582E1,2.486142635E0,1.527463832E1
1.486962868E0,-3.947559118E0,-1.472722530E1,1.442273855E0,1.531517359E1
1.489436618E0,-3.693321705E0,-1.492822266E1,9.056833982E-1,1.540495762E1
1.491908284E0,-3.444468260E0,-1.500957870E1,8.338986635E-1,1.542229560E1
1.494381982E0,-3.099901676E0,-1.519143295E1,7.764709592E-1,1.552391486E1
1.496855680E0,-2.961117983E0,-1.455434418E1,7.477570772E-1,1.487132458E1
1.499329378E0,-2.956332445E0,-1.312283802E1,1.839482427E0,1.357690962E1
1.501803128E0,-3.157329559E0,-1.143230820E1,2.840280533E0,1.219563833E1
1.504276826E0,-3.363112211E0,-1.025444126E1,2.955136061E0,1.118914288E1
1.506750524E0,-3.329612732E0,-9.493523598E0,2.773281336E0,1.043572712E1
1.509224222E0,-3.233899832E0,-9.062217712E0,2.419143677E0,9.921398798E0
1.511679222E0,-3.243471146E0,-8.708079338E0,2.145763636E0,9.537035829E0
1.514130628E0,-3.257827997E0,-8.535796165E0,1.791625977E0,9.310380394E0
1.516603337E0,-3.343969584E0,-8.636295319E0,1.490130305E0,9.380203502E0
1.519076045E0,-3.401397467E0,-8.679366112E0,1.341775298E0,9.418134729E0
1.521548701E0,-3.540181160E0,-8.703293800E0,1.221535921E0,9.474827472E0
1.524021409E0,-3.588037491E0,-8.660223007E0,1.202393413E0,9.450884905E0
1.526494118E0,-3.554538012E0,-8.770293236E0,1.308275819E0,9.553238694E0
1.528966826E0,-3.449253798E0,-8.956933022E0,1.466202021E0,9.709466992E0
1.531484274E0,-3.444468260E0,-9.014361382E0,1.638485312E0,9.788141132E0
1.533958128E0,-3.406183004E0,-8.990432739E0,1.935195327E0,9.806882504E0
1.536431982E0,-3.315255880E0,-9.153144836E0,2.207977057E0,9.982291552E0
1.538905837E0,-3.071187973E0,-9.186644554E0,2.447857618E0,9.990927917E0
1.541379587E0,-2.682952404E0,-8.956933022E0,2.505285263E0,9.679945093E0
1.543853493E0,-2.682952404E0,-8.416155815E0,2.677568436E0,9.230345878E0
1.546327295E0,-2.462812662E0,-8.655437469E0,2.500499725E0,9.339943408E0
1.548801149E0,-1.974676847E0,-9.436096191E0,2.188834429E0,9.885861426E0
1.551272295E0,-1.797009826E0,-9.541379929E0,2.140978098E0,9.942382133E0
1.553746045E0,-1.758724689E0,-9.397810936E0,2.169692039E0,9.804056633E0
1.556219847E0,-1.749153376E0,-9.315856934E0,2.073979139E0,9.702892219E0
1.558693597E0,-1.922034740E0,-9.124430656E0,1.920838356E0,9.520455469E0
1.561167347E0,-2.252244234E0,-8.789435387E0,1.911267042E0,9.272525018E0
1.563641097E0,-2.443670034E0,-8.631509781E0,1.767697692E0,9.143261971E0
1.566114847E0,-2.601596355E0,-8.540582657E0,1.715055585E0,9.091274464E0
1.568588649E0,-2.773879766E0,-8.171489716E0,1.470987678E0,8.753939563E0
1.571060316E0,-2.845664263E0,-8.114061356E0,1.686341763E0,8.762393812E0
1.573534014E0,-2.937189817E0,-8.109275818E0,1.959123492E0,8.844523909E0
1.576007712E0,-3.396611691E0,-7.769495010E0,2.835494757E0,8.941032055E0
1.578481462E0,-3.879961967E0,-7.501499176E0,3.836292982E0,9.275976423E0
1.580955159E0,-3.549752474E0,-8.190631866E0,2.553141832E0,9.284703884E0
1.583428857E0,-3.382254839E0,-8.435297966E0,2.035693884E0,9.313321060E0
1.585902555E0,-3.066402197E0,-8.712865829E0,1.657627940E0,9.384273216E0
1.588376305E0,-2.443670034E0,-8.976076126E0,4.989035130E-1,9.316134959E0
1.590848337E0,-1.965105653E0,-9.272786140E0,1.393819153E-1,9.479748433E0
1.593322034E0,-1.821536183E0,-9.517452240E0,3.601198196E-1,9.696884938E0
1.595795732E0,-1.931606054E0,-9.325428009E0,8.243274093E-1,9.558986619E0
1.598269378E0,-2.056032896E0,-9.095717430E0,1.250249863E0,9.408638135E0
1.600743024E0,-2.156531334E0,-9.076574326E0,1.509272933E0,9.450541448E0
1.603216722E0,-2.285743713E0,-9.004789352E0,1.777269006E0,9.458834004E0
1.605690420E0,-2.371885538E0,-8.909076691E0,1.916052699E0,9.416408362E0
1.608164066E0,-2.539382935E0,-8.779864311E0,1.715055585E0,9.299241833E0
1.610636357E0,-2.649452925E0,-8.693722725E0,1.604985833E0,9.229105869E0
1.613110003E0,-2.682952404E0,-8.612366676E0,1.537986755E0,9.150764811E0
1.615583597E0,-2.745165825E0,-8.535796165E0,1.542772412E0,9.098126087E0
1.618057243E0,-2.692523718E0,-8.550153732E0,1.624128342E0,9.110027754E0
1.620530889E0,-2.773879766E0,-8.492725372E0,1.628913999E0,9.081528177E0
1.623004534E0,-2.865405083E0,-8.401798248E0,1.585843205E0,9.017519546E0
1.625478180E0,-2.807379246E0,-8.397012711E0,1.480558991E0,8.976817678E0
1.627951774E0,-2.692523718E0,-8.430512428E0,1.499701619E0,8.976209040E0
1.630424378E0,-2.553740025E0,-8.334799767E0,1.619342685E0,8.866382915E0
1.632897972E0,-2.290529490E0,-8.397012711E0,1.657627940E0,8.860252716E0
1.635371566E0,-1.955534339E0,-8.487939835E0,1.695913076E0,8.873858143E0
1.637845212E0,-1.749153376E0,-8.497511864E0,1.729412556E0,8.846361579E0
1.640318805E0,-1.514656782E0,-8.674580574E0,1.868196249E0,9.001815957E0
1.642792399E0,-1.146162033E0,-8.870791435E0,2.361716032E0,9.251071868E0
1.645265993E0,-4.803591371E-1,-8.736793518E0,2.677568436E0,9.150501549E0
1.647739639E0,1.609173268E-1,-8.578866959E0,2.969492912E0,9.079688367E0
1.650212399E0,2.518445849E-1,-8.358727455E0,3.223132133E0,8.962161074E0
1.652685993E0,1.657029688E-1,-7.898707390E0,2.873780012E0,8.406880959E0
1.655159587E0,8.434699476E-2,-7.343572617E0,2.572284460E0,7.781505030E0
1.657633128E0,-5.952146053E-1,-5.681757450E0,3.654438496E0,6.781708403E0
1.660106722E0,-1.730010748E0,-3.235096216E0,4.502095699E0,5.807551154E0
1.662580316E0,-1.596012712E0,-2.420938253E0,2.131406784E0,3.598762771E0
1.665053909E0,-1.261017561E0,-2.818146944E0,1.557129383E0,3.457856186E0
1.667527503E0,-1.146162033E0,-2.779861689E0,1.442273855E0,3.334887148E0
1.670000368E0,-1.064806104E0,-1.936989903E0,9.104689956E-1,2.390542975E0
1.672473909E0,-1.639083505E0,-5.246263742E-1,-2.578266263E-1,1.740201752E0
1.674947503E0,-1.801795483E0,-4.576273263E-1,2.787638307E-1,1.879786957E0
1.677421045E0,-1.663011789E0,-6.107679605E-1,7.716853023E-1,1.932393314E0
1.679894639E0,-1.557727575E0,-1.118644595E0,8.243274093E-1,2.087437809E0
1.682368180E0,-1.457229018E0,-1.243071318E0,1.360917926E0,2.349646849E0
1.684841774E0,-1.375872970E0,-1.290927768E0,1.533201098E0,2.431095748E0
1.687315316E0,-1.404586911E0,-1.511067510E0,1.796411633E0,2.735559205E0
1.689788389E0,-1.371087432E0,-1.343569875E0,2.174477577E0,2.900588473E0
1.692261930E0,-1.533799291E0,-1.635494232E0,2.188834429E0,3.133429081E0
1.694735472E0,-1.782652855E0,-1.812563181E0,2.337787628E0,3.453764248E0
1.697209066E0,-1.591227055E0,-1.664208174E0,2.715853691E0,3.560541203E0
1.699682607E0,-1.194018483E0,-2.191227436E0,3.103491068E0,3.982312723E0
1.702156149E0,-1.150947690E0,-2.569293261E0,3.203989506E0,4.265149141E0
1.704629691E0,-1.351944804E0,-2.952144861E0,2.988635540E0,4.413032566E0
1.707103284E0,-1.615155339E0,-3.306880951E0,2.274976015E0,4.326627354E0
1.709576409E0,-1.792224169E0,-2.186441660E0,1.408774376E0,3.158676914E0
1.712049951E0,-1.922034740E0,-2.703291416E0,8.913264275E-1,3.434598204E0
1.714523493E0,-1.797009826E0,-4.125226021E0,2.366501570E0,5.084000759E0
1.716997034E0,-1.462014675E0,-4.393820763E0,3.659224033E0,5.901954620E0
1.719470576E0,-1.050449133E0,-2.172084808E0,8.626125455E-1,2.562322423E0
1.721944118E0,-6.622136831E-1,-1.243071318E0,-8.231309652E-1,1.631348476E0
1.724417659E0,-6.000002623E-1,-1.980060697E0,2.327618122E0,3.114232939E0
1.726891201E0,-6.669993401E-1,-2.995215654E0,4.386641979E0,5.353394511E0
1.729364378E0,-6.574280262E-1,-3.393022537E0,2.610569477E0,4.331268468E0
1.731837920E0,-7.052844763E-1,-3.316452265E0,2.246262312E0,4.067182832E0
1.734311409E0,-7.292127013E-1,-3.311666489E0,2.050050735E0,3.962523705E0
1.736784951E0,-5.904290080E-1,-3.972085476E0,1.130608678E0,4.171851558E0
1.739258493E0,-6.430711150E-1,-4.671388149E0,1.068395257E0,4.834963922E0
1.741732034E0,-5.856433511E-1,-5.246263504E0,1.106680512E0,5.393607387E0
1.744205576E0,-6.047859192E-1,-5.743970871E0,1.250249863E0,5.909491695E0
1.746679118E0,-7.052844763E-1,-6.256632805E0,1.183250785E0,6.406478180E0
1.749152399E0,-8.733802438E-1,-7.213762283E0,2.179263115E0,7.586194504E0
1.751625889E0,-1.131805062E0,-8.397012711E0,3.314059258E0,9.098010438E0
1.754099430E0,-1.189232826E0,-8.382656097E0,2.940778971E0,8.962777411E0
1.756572972E0,-1.117448211E0,-8.204988480E0,1.624128342E0,8.438502197E0
1.759046514E0,-8.303094506E-1,-8.440083504E0,8.003991842E-1,8.518512909E0
1.761520003E0,-8.111668825E-1,-9.196215630E0,1.954337835E0,9.436514716E0
1.763993545E0,-6.717849374E-1,-9.622735977E0,2.557927370E0,9.979545837E0
1.766467087E0,-6.813562512E-1,-1.008694363E1,1.844268084E0,1.027677006E1
1.768940368E0,-6.191428304E-1,-1.091545868E1,1.360917926E0,1.101738052E1
1.771413857E0,-2.650051117E-1,-1.100160027E1,1.192822099E0,1.106924842E1
1.773887399E0,-1.884347796E-1,-1.060917759E1,-4.923232496E-1,1.062226619E1
1.776360941E0,-2.315055877E-1,-1.206461143E1,-5.928218365E-1,1.208138575E1
1.778834430E0,-1.310070455E-1,-1.285484123E1,1.456630826E0,1.293776949E1
1.781307972E0,5.084748194E-2,-1.291705513E1,1.853839397E0,1.304950647E1
1.783781462E0,7.477571070E-2,-1.275434303E1,1.130608678E0,1.280457471E1
1.786255003E0,2.991028363E-3,-1.269691563E1,1.259821177E0,1.275926427E1
1.788728389E0,-6.879365444E-2,-1.217946720E1,6.472585201E-1,1.219684785E1
1.791201878E0,-1.740778536E-1,-1.147119141E1,2.159522474E-1,1.147454447E1
1.793675420E0,-2.745763958E-1,-1.123131084E1,2.931207791E-2,1.123470492E1
1.796148909E0,-1.836491376E-1,-1.125523949E1,8.195417523E-1,1.128653142E1
1.798622451E0,-2.745763958E-1,-1.099681473E1,1.624128342E0,1.111949276E1
1.801095941E0,-4.085744619E-1,-1.026401234E1,2.059622049E0,1.047658939E1
1.803569482E0,-1.310070455E-1,-8.257631302E0,5.036891699E-1,8.274015974E0
1.806043024E0,1.992024779E-1,-7.913064480E0,-1.764706671E-1,7.917538316E0
1.808516409E0,2.422732860E-1,-9.086145401E0,2.298904419E0,9.375590441E0
1.810989899E0,3.050848842E-1,-9.402596474E0,2.821137905E0,9.821441662E0
1.813463441E0,5.539384484E-1,-9.201001167E0,1.719841242E0,9.376733130E0
1.815936930E0,7.980063558E-1,-9.186644554E0,1.077966571E0,9.284032757E0
1.818410472E0,8.937192559E-1,-9.201001167E0,9.104689956E-1,9.289031725E0
1.820883962E0,6.879364848E-1,-9.215357780E0,7.956135273E-1,9.275186064E0
1.823357503E0,5.252245665E-1,-9.369096756E0,8.817551732E-1,9.425143344E0
1.825830993E0,3.577269912E-1,-9.584450722E0,1.159322619E0,9.660936454E0
1.828304378E0,1.369891018E-1,-9.847661972E0,1.202393413E0,9.921741896E0
1.830777868E0,5.084748194E-2,-1.065703392E1,1.542772412E0,1.076824518E1
1.833251409E0,1.274178028E-1,-1.230867958E1,1.877767563E0,1.245174041E1
1.835724899E0,1.226321608E-1,-1.274477196E1,2.227119684E0,1.293848187E1
1.838198389E0,1.752742529E-1,-1.157169056E1,7.764709592E-1,1.159903662E1
1.840671930E0,1.178465188E-1,-1.164826107E1,7.429714203E-1,1.167252673E1
1.843145420E0,-7.357929647E-2,-1.222732353E1,1.451845169E0,1.231343612E1
1.845618962E0,-4.516452849E-1,-1.380778313E1,2.308475733E0,1.400670977E1
1.848092399E0,-1.088734269E0,-1.618265915E1,3.160918713E0,1.652438218E1
1.850565889E0,-2.008176327E0,-1.902234268E1,3.491726398E0,1.944413656E1
1.853039378E0,-3.032902718E0,-2.271386909E1,3.443870068E0,2.317279848E1
1.855512920E0,-3.961916208E0,-2.738286400E1,3.774079561E0,2.792421346E1
1.857986409E0,-4.875974178E0,-3.177369308E1,4.252644062E0,3.242572556E1
1.860459951E0,-5.661418438E0,-3.423471069E1,3.788436413E0,3.490586377E1
1.862933441E0,-6.126224041E0,-3.538446426E1,2.600998163E0,3.600494582E1
1.865406930E0,-6.475576401E0,-3.525465393E1,1.389631748E0,3.587136448E1
1.867880420E0,-6.729215622E0,-3.344507980E1,6.999006271E-1,3.412250821E1
1.870353962E0,-7.136593342E0,-3.034218788E1,1.393819153E-1,3.117047894E1
1.872827451E0,-7.485945702E0,-2.632463837E1,3.409772217E-1,2.737046280E1
1.875300993E0,-7.552944660E0,-2.213002014E1,6.568298340E-1,2.339265248E1
1.877774430E0,-7.261020184E0,-1.829432487E1,1.168893814E0,1.971727794E1
1.880247972E0,-6.714858532E0,-1.495215034E1,1.782054663E0,1.648732373E1
1.882721514E0,-5.924628735E0,-1.275434303E1,1.619342685E0,1.415615635E1
1.885195003E0,-5.005784988E0,-1.122652531E1,1.504487276E0,1.238370848E1
1.887668441E0,-4.138985157E0,-9.972088814E0,1.274178028E0,1.087185739E1
1.890141930E0,-3.583251953E0,-9.201001167E0,9.343972206E-1,9.918226414E0
1.892615472E0,-3.229114056E0,-8.794221878E0,6.855437160E-1,9.393374591E0
1.895089014E0,-2.324028969E0,-8.401798248E0,5.754738450E-1,8.736274641E0
1.897562451E0,-2.510669231E0,-8.281558990E0,8.386843204E-1,8.694312549E0
1.900035993E0,-2.711666346E0,-8.114061356E0,8.865407705E-1,8.600993000E0
1.902509534E0,-2.577668190E0,-7.860422611E0,9.248259664E-1,8.323816432E0
1.904983024E0,-2.204387903E0,-7.731209755E0,9.726824164E-1,8.097965262E0
1.907456409E0,-1.720439434E0,-7.740781307E0,8.913264275E-1,7.979603367E0
1.909929951E0,-9.882357717E-1,-7.965706348E0,9.439685345E-1,8.082089096E0
1.912403441E0,-3.032902777E-1,-8.411369324E0,7.668996453E-1,8.451701246E0
1.914876982E0,1.704886109E-1,-8.602795601E0,4.175475538E-1,8.614609943E0
1.917350420E0,6.783652306E-1,-8.818149567E0,2.548356056E-1,8.847874454E0
1.919823962E0,1.152144074E0,-9.009575844E0,2.644068897E-1,9.086792826E0
1.922297451E0,1.540379524E0,-9.220144272E0,2.159522474E-1,9.350425918E0
1.924770993E0,1.741376638E0,-9.412167549E0,2.446661144E-1,9.575027524E0
1.927244430E0,1.851446509E0,-9.594022751E0,5.467599630E-1,9.786320717E0
1.929717972E0,1.918445587E0,-9.866804123E0,1.111466169E0,1.011284402E1
1.932191462E0,1.865803480E0,-1.008215809E1,1.528415442E0,1.036663823E1
1.934665003E0,1.760519266E0,-1.024008465E1,1.834696770E0,1.055106032E1
1.937138441E0,1.621735573E0,-1.042732334E1,2.011765718E0,1.074273241E1
1.939611982E0,1.459023595E0,-1.052303600E1,2.035693884E0,1.081698138E1
1.942085472E0,1.243071318E0,-1.057089233E1,1.925624013E0,1.081651602E1
1.944559014E0,1.042074203E0,-1.058046341E1,1.825125456E0,1.078717792E1
1.947032399E0,7.884350419E-1,-1.062353420E1,1.705484390E0,1.078840979E1
1.949505941E0,5.874379873E-1,-1.065703392E1,1.619342685E0,1.079535669E1
1.951979378E0,3.912265003E-1,-1.069053364E1,1.518844128E0,1.080497363E1
1.954452920E0,2.231307179E-1,-1.074317551E1,1.509272933E0,1.085096825E1
1.956926409E0,-6.580262445E-3,-1.075274658E1,1.427916884E0,1.084714474E1
1.959399899E0,-1.357926875E-1,-1.075274658E1,1.399203062E0,1.084425045E1
1.961873389E0,-2.985046208E-1,-1.077667522E1,1.466202021E0,1.088005433E1
1.964346930E0,-4.372883439E-1,-1.076231766E1,1.490130305E0,1.087378457E1
1.966820420E0,-5.377869010E-1,-1.074796104E1,1.523629785E0,1.086873171E1
1.969293962E0,-5.952146053E-1,-1.069531918E1,1.504487276E0,1.081700581E1
1.971767451E0,-6.430711150E-1,-1.043210888E1,1.332203984E0,1.053647017E1
1.974240941E0,-5.473581553E-1,-9.919445992E0,1.101894855E0,9.995458069E0
1.976714430E0,-9.750752151E-2,-1.075753212E1,2.446661144E-1,1.076075585E1
1.979187920E0,4.390829504E-1,-1.066660500E1,-4.396811724E-1,1.068468884E1
1.981661462E0,9.870393574E-2,-9.862018585E0,-1.429711580E-1,9.863548742E0
1.984134951E0,-2.027917206E-1,-9.574879646E0,-2.673979402E-1,9.580759176E0
1.986608441E0,-4.181457460E-1,-8.899505615E0,-5.162515044E-1,8.924268131E0
1.989081982E0,-5.856433511E-1,-8.583653450E0,-6.071787477E-1,8.625007288E0
1.991555472E0,-6.717849374E-1,-8.468797684E0,-4.971089065E-1,8.509932225E0
1.994028962E0,-6.574280262E-1,-8.291130066E0,-3.008974493E-1,8.322595067E0
1.996502451E0,-5.760720372E-1,-8.128418922E0,-6.161518395E-2,8.149039796E0
1.998975993E0,-4.851447940E-1,-8.003992081E0,1.298106313E-1,8.019732259E0
2.001449482E0,-3.080759048E-1,-7.846065521E0,4.845465720E-1,7.867047750E0
2.003922972E0,-1.645065546E-1,-7.707281590E0,7.956135273E-1,7.749984051E0
2.006396409E0,-6.580262445E-3,-7.697710514E0,9.583254457E-1,7.757137237E0
2.008869951E0,1.465603858E-1,-7.788637638E0,1.087537885E0,7.865563861E0
2.011343441E0,4.342973232E-1,-7.917850018E0,1.211964726E0,8.021834052E0
2.013816930E0,7.310073376E-1,-8.147561073E0,1.255035520E0,8.276003705E0
2.016290420E0,9.559326172E-1,-8.387441635E0,1.240678549E0,8.532424486E0
2.018763962E0,1.209571838E0,-8.583653450E0,1.192822099E0,8.750142578E0
2.021237451E0,1.334596872E0,-8.808578491E0,1.140179992E0,8.981771221E0
2.023710941E0,1.449452281E0,-8.947361946E0,1.207179070E0,9.144040628E0
2.026184430E0,1.530808330E0,-9.148359299E0,1.183250785E0,9.350718391E0
2.028657972E0,1.492523074E0,-9.296713829E0,1.202393413E0,9.492221187E0
2.031131462E0,1.463809252E0,-9.436096191E0,1.322632670E0,9.640124794E0
2.033604951E0,1.334596872E0,-9.503094673E0,1.399203062E0,9.697820703E0
2.036078441E0,1.195214868E0,-9.603593826E0,1.528415442E0,9.797632710E0
2.038551982E0,1.099501967E0,-9.694520950E0,1.466202021E0,9.866224678E0
2.041025472E0,8.793623447E-1,-9.694520950E0,1.427916884E0,9.838493849E0
2.043498962E0,6.400800347E-1,-9.737591743E0,1.413560033E0,9.860453711E0
2.045972399E0,4.869394004E-1,-9.799804688E0,1.437488198E0,9.916635226E0
2.048445941E0,3.433700502E-1,-9.885947227E0,1.451845169E0,9.997885275E0
2.050919430E0,2.231307179E-1,-9.991230965E0,1.456630826E0,1.009931962E1
2.053392920E0,1.082752272E-1,-1.005344391E1,1.442273855E0,1.015694894E1
2.055866409E0,-6.580262445E-3,-1.011565781E1,1.356132269E0,1.020615848E1
2.058339951E0,-6.400800496E-2,-1.007737255E1,1.250249863E0,1.015483428E1
2.060813389E0,-1.214357466E-1,-1.016351414E1,1.341775298E0,1.025242055E1
2.063286878E0,-1.932204217E-1,-1.033579731E1,1.418345571E0,1.043444988E1
2.065760420E0,-2.506481707E-1,-1.035972595E1,1.384846091E0,1.045488140E1
2.068233962E0,-2.985046208E-1,-1.035972595E1,1.427916884E0,1.046192972E1
2.070707451E0,-3.846462369E-1,-1.038843918E1,1.442273855E0,1.049513102E1
2.073180941E0,-3.942175210E-1,-1.036929703E1,1.413560033E0,1.047262528E1
2.075654430E0,-3.750749528E-1,-1.031186962E1,1.332203984E0,1.040433101E1
2.078127972E0,-3.798605800E-1,-1.021615601E1,1.336989641E0,1.031027055E1
2.080601462E0,-3.463610709E-1,-1.012044334E1,1.313061476E0,1.021114440E1
2.083074951E0,-2.937189937E-1,-1.004387283E1,1.250249863E0,1.012564946E1
2.085548441E0,-2.841476798E-1,-1.000080204E1,1.188036442E0,1.007512838E1
2.088021982E0,-2.602194548E-1,-9.976874352E0,1.154536963E0,1.004682495E1
2.090495472E0,-2.362912297E-1,-9.914660454E0,1.116251707E0,9.980097361E0
2.092968962E0,-1.645065546E-1,-9.790233612E0,1.082752228E0,9.851298847E0
2.095442451E0,-1.740778536E-1,-9.708877563E0,1.073180914E0,9.769561091E0
2.097915993E0,-1.692921966E-1,-9.613164902E0,1.010967612E0,9.667660254E0
2.100389482E0,-8.793623000E-2,-9.680164337E0,1.034895778E0,9.735724095E0
2.102862972E0,-7.357929647E-2,-9.665806770E0,1.159322619E0,9.735361491E0
2.105336409E0,-7.836493850E-2,-9.493523598E0,1.144965649E0,9.562639683E0
2.107809951E0,-6.400800496E-2,-9.445667267E0,1.173679471E0,9.518521452E0
2.110283441E0,-7.836493850E-2,-9.421739578E0,1.283749342E0,9.509118262E0
2.112756930E0,-3.529413417E-2,-9.436096191E0,1.303490162E0,9.525767350E0
2.115230420E0,-1.136590727E-2,-9.455238342E0,1.341775298E0,9.549974987E0
2.117703962E0,3.170489892E-2,-9.445667267E0,1.327418327E0,9.538536299E0
2.120177451E0,2.691925503E-2,-9.474381447E0,1.283749342E0,9.560995807E0
2.122650941E0,-6.580262445E-3,-9.469595909E0,1.269392371E0,9.554299921E0
2.125124430E0,2.991028363E-3,-9.460023880E0,1.289133191E0,9.547456475E0
2.127597972E0,2.691925503E-2,-9.536594391E0,1.235892892E0,9.616381256E0
2.130071462E0,8.434699476E-2,-9.522237778E0,1.178465128E0,9.595254388E0
2.132544951E0,8.913264424E-2,-9.579665184E0,1.130608678E0,9.646564448E0
2.135018441E0,8.434699476E-2,-9.574879646E0,1.087537885E0,9.636813442E0
2.137491982E0,6.041877344E-2,-9.522237778E0,1.092323542E0,9.584875244E0
2.139965472E0,5.563312769E-2,-9.541379929E0,1.087537885E0,9.603320501E0
2.142438962E0,6.520441920E-2,-9.555737495E0,1.054038405E0,9.613915314E0
2.144912399E0,3.170489892E-2,-9.589237213E0,1.054038405E0,9.647044754E0
2.147385941E0,2.691925503E-2,-9.603593826E0,1.054038405E0,9.661300947E0
2.149859430E0,2.691925503E-2,-9.589237213E0,1.082752228E0,9.650209706E0
2.152332920E0,-3.050848842E-2,-9.627521515E0,1.087537885E0,9.688799716E0
2.154806409E0,2.991028363E-3,-9.670592308E0,1.073180914E0,9.729957955E0
2.157279951E0,3.649054468E-2,-9.704092026E0,1.073180914E0,9.763321713E0
2.159753389E0,1.734796353E-2,-9.751948357E0,1.039681435E0,9.807228721E0
2.162226930E0,7.776673418E-3,-9.756733894E0,1.015753269E0,9.809468460E0
2.164700420E0,-1.615155302E-2,-9.771091461E0,1.073180914E0,9.829862994E0
2.167173962E0,-1.136590727E-2,-9.799804688E0,1.068395257E0,9.857878551E0
2.169647451E0,-3.050848842E-2,-9.809376717E0,1.025324464E0,9.862864320E0
2.172120941E0,-4.486542568E-2,-9.833304405E0,1.044467092E0,9.888720844E0
2.174594430E0,-4.007977992E-2,-9.847661972E0,1.106680512E0,9.909732310E0
2.177067972E0,-6.580262445E-3,-9.842875481E0,1.135394335E0,9.908146210E0
2.179541462E0,-3.050848842E-2,-9.842875481E0,1.154536963E0,9.910402822E0
2.182014899E0,-8.315058798E-2,-9.881160736E0,1.092323542E0,9.941701174E0
2.184488441E0,-6.400800496E-2,-9.838089943E0,1.130608678E0,9.903049365E0
2.186961930E0,-6.879365444E-2,-9.828518867E0,1.111466169E0,9.891403982E0
2.189435472E0,-7.836493850E-2,-9.828518867E0,1.082752228E0,9.888289871E0
2.191908962E0,-8.793623000E-2,-9.809376717E0,1.149751306E0,9.876919176E0
2.194382451E0,-1.214357466E-1,-9.809376717E0,1.140179992E0,9.876164672E0
2.196855993E0,-1.214357466E-1,-9.742377281E0,1.192822099E0,9.815879293E0
2.199329482E0,-1.549352705E-1,-9.689735413E0,1.235892892E0,9.769463063E0
2.201802920E0,-2.075773627E-1,-9.665806770E0,1.308275819E0,9.756151624E0
2.204276409E0,-1.740778536E-1,-9.637093544E0,1.322632670E0,9.728989272E0
2.206749951E0,-1.645065546E-1,-9.613164902E0,1.327418327E0,9.705773604E0
2.209223441E0,-1.980060786E-1,-9.584450722E0,1.313061476E0,9.676002919E0
2.211696930E0,-2.123630047E-1,-9.546165466E0,1.293918848E0,9.635797795E0
2.214170420E0,-2.315055877E-1,-9.555737495E0,1.264606714E0,9.641833024E0
2.216643962E0,-2.889333367E-1,-9.527023315E0,1.264606714E0,9.614930362E0
2.219117451E0,-2.985046208E-1,-9.493523598E0,1.211964726E0,9.575226045E0
2.221590941E0,-2.937189937E-1,-9.474381447E0,1.197607756E0,9.554289036E0
2.224064430E0,-2.793620527E-1,-9.474381447E0,1.211964726E0,9.555668760E0
2.226537972E0,-2.602194548E-1,-9.474381447E0,1.121037364E0,9.544021308E0
2.229011462E0,-2.745763958E-1,-9.440881729E0,1.121037364E0,9.511170527E0
2.231484951E0,-2.602194548E-1,-9.450452805E0,1.087537885E0,9.516381194E0
2.233958441E0,-2.889333367E-1,-9.498309135E0,1.063609719E0,9.562040815E0
2.236431982E0,-2.745763958E-1,-9.488738060E0,1.039681435E0,9.549475360E0
2.238905472E0,-2.458625287E-1,-9.527023315E0,1.039681435E0,9.586738711E0
2.241378962E0,-2.745763958E-1,-9.541379929E0,9.726824164E-1,9.594760769E0
2.243852451E0,-2.650051117E-1,-9.560523033E0,9.918249846E-1,9.615484656E0
2.246325993E0,-2.171486616E-1,-9.627521515E0,9.966106415E-1,9.681402627E0
2.248799430E0,-1.884347796E-1,-9.680164337E0,1.025324464E0,9.736137813E0
2.251272972E0,-2.123630047E-1,-9.689735413E0,1.034895778E0,9.747157518E0
2.253746462E0,-1.740778536E-1,-9.737591743E0,1.049252748E0,9.795505469E0
2.256219951E0,-1.692921966E-1,-9.766305923E0,9.631111026E-1,9.815140052E0
2.258693441E0,-1.549352705E-1,-9.751948357E0,9.966106415E-1,9.803965242E0
2.261166982E0,-1.692921966E-1,-9.775876999E0,1.020538807E0,9.830459318E0
2.263640420E0,-1.645065546E-1,-9.790233612E0,1.049252748E0,9.847673223E0
2.266113962E0,-1.214357466E-1,-9.847661972E0,1.049252748E0,9.904146823E0
2.268587451E0,-1.310070455E-1,-9.814162254E0,1.049252748E0,9.870961196E0
2.271060941E0,-1.022931710E-1,-9.809376717E0,1.001396298E0,9.860888906E0
2.273534430E0,-1.214357466E-1,-9.842875481E0,1.034895778E0,9.897876219E0
2.276007972E0,-1.214357466E-1,-9.785448074E0,1.058824062E0,9.843314942E0
2.278481462E0,-1.214357466E-1,-9.771091461E0,1.063609719E0,9.829559533E0
2.280954951E0,-7.357929647E-2,-9.780662537E0,1.073180914E0,9.839638756E0
2.283428441E0,-4.007977992E-2,-9.799804688E0,1.106680512E0,9.862176233E0
2.285901930E0,-1.136590727E-2,-9.771091461E0,1.106680512E0,9.833570017E0
2.288375420E0,-3.050848842E-2,-9.790233612E0,1.073180914E0,9.848924927E0
2.290848909E0,2.213360928E-2,-9.780662537E0,1.097109199E0,9.842027136E0
2.293322451E0,2.691925503E-2,-9.780662537E0,1.130608678E0,9.845829588E0
2.295795993E0,3.170489892E-2,-9.847661972E0,1.121037364E0,9.911315568E0
2.298269482E0,1.256231871E-2,-9.785448074E0,1.149751306E0,9.852770163E0
2.300742920E0,-1.794616925E-3,-9.761520386E0,1.269392371E0,9.843710706E0
2.303216462E0,2.691925503E-2,-9.780662537E0,1.327418327E0,9.870365936E0
2.305689951E0,1.734796353E-2,-9.756733894E0,1.164108157E0,9.825950592E0
2.308163441E0,-1.794616925E-3,-9.680164337E0,1.125823021E0,9.745412371E0
2.310636982E0,-1.136590727E-2,-9.622735977E0,1.082752228E0,9.683466799E0
2.313110472E0,-1.136590727E-2,-9.613164902E0,1.073180914E0,9.672889221E0
2.315584014E0,-1.794616925E-3,-9.603593826E0,1.068395257E0,9.662840474E0
2.318057503E0,-3.050848842E-2,-9.589237213E0,1.054038405E0,9.647040896E0
2.320530993E0,-4.486542568E-2,-9.598808289E0,1.077966571E0,9.659251803E0
2.323004430E0,-5.443671346E-2,-9.579665184E0,1.077966571E0,9.640278021E0
2.325477972E0,-4.486542568E-2,-9.550951958E0,1.063609719E0,9.610096869E0
2.327951462E0,-5.922235921E-2,-9.632308006E0,1.077966571E0,9.692619705E0
2.330424951E0,-6.879365444E-2,-9.622735977E0,1.020538807E0,9.676945784E0
2.332898441E0,-5.443671346E-2,-9.627521515E0,1.001396298E0,9.679614064E0
2.335371982E0,-2.572284266E-2,-9.632308006E0,9.918249846E-1,9.683270935E0
2.337845472E0,-2.572284266E-2,-9.632308006E0,1.010967612E0,9.685250369E0
2.340318962E0,-1.136590727E-2,-9.656235695E0,1.010967612E0,9.709020161E0
2.342792399E0,-6.580262445E-3,-9.684949875E0,9.583254457E-1,9.732249742E0
2.345265941E0,7.776673418E-3,-9.680164337E0,9.966106415E-1,9.731334690E0
2.347739430E0,7.776673418E-3,-9.684949875E0,1.001396298E0,9.736586111E0
2.350212920E0,2.213360928E-2,-9.670592308E0,1.010967612E0,9.723317386E0
2.352686409E0,1.256231871E-2,-9.675378799E0,1.025324464E0,9.729563350E0
2.355159951E0,-1.136590727E-2,-9.694520950E0,9.631111026E-1,9.742250697E0
2.357633441E0,4.127619043E-2,-9.684949875E0,9.535398483E-1,9.731864983E0
2.360106930E0,6.041877344E-2,-9.694520950E0,9.678967595E-1,9.742905677E0
2.362580420E0,3.170489892E-2,-9.684949875E0,9.870393276E-1,9.735168510E0
2.365053962E0,3.170489892E-2,-9.713663101E0,9.678967595E-1,9.761817463E0
2.367527451E0,5.563312769E-2,-9.708877563E0,9.535398483E-1,9.755748912E0
2.370000941E0,7.776673418E-3,-9.713663101E0,9.583254457E-1,9.760824708E0
2.372474430E0,-6.580262445E-3,-9.718449593E0,9.583254457E-1,9.765587204E0
2.374947972E0,2.991028363E-3,-9.751948357E0,9.583254457E-1,9.798923071E0
2.377421462E0,-1.136590727E-2,-9.751948357E0,9.583254457E-1,9.798929206E0
2.379894951E0,-2.093719877E-2,-9.742377281E0,9.487541914E-1,9.788487522E0
2.382368441E0,-5.443671346E-2,-9.751948357E0,9.583254457E-1,9.799073822E0
2.384841982E0,-6.879365444E-2,-9.718449593E0,9.631111026E-1,9.766298073E0
2.387315472E0,-6.400800496E-2,-9.723235130E0,9.774680734E-1,9.772453236E0
2.389788962E0,-8.793623000E-2,-9.718449593E0,9.918249846E-1,9.769325057E0
2.392262451E0,-1.022931710E-1,-9.718449593E0,9.678967595E-1,9.767064580E0
2.394735993E0,-1.310070455E-1,-9.751948357E0,9.583254457E-1,9.799798327E0
2.397209482E0,-1.214357466E-1,-9.771091461E0,9.535398483E-1,9.818259175E0
2.399682972E0,-1.597209126E-1,-9.766305923E0,9.391828775E-1,9.812660528E0
2.402156409E0,-1.645065546E-1,-9.771091461E0,9.774680734E-1,9.821238954E0
2.404629951E0,-1.501496136E-1,-9.742377281E0,9.391828775E-1,9.788693706E0
2.407103441E0,-1.836491376E-1,-9.785448074E0,9.918249846E-1,9.837298299E0
2.409576930E0,-1.980060786E-1,-9.809376717E0,1.006181955E0,9.862833270E0
2.412050420E0,-1.692921966E-1,-9.804591179E0,9.631111026E-1,9.853235561E0
2.414523962E0,-1.645065546E-1,-9.847661972E0,9.726824164E-1,9.896950025E0
2.416997451E0,-1.692921966E-1,-9.771091461E0,1.010967612E0,9.824710871E0
2.419470941E0,-1.597209126E-1,-9.814162254E0,1.015753269E0,9.867879520E0
2.421944430E0,-1.262213886E-1,-9.790233612E0,9.870393276E-1,9.840673384E0
2.424417972E0,-1.214357466E-1,-9.795019150E0,9.870393276E-1,9.845374214E0
2.426891462E0,-1.214357466E-1,-9.818947792E0,9.918249846E-1,9.869660540E0
2.429364951E0,-1.070788130E-1,-9.756733894E0,1.015753269E0,9.810049789E0
2.431838441E0,-1.022931710E-1,-9.747162819E0,9.918249846E-1,9.798028562E0
2.434311982E0,-1.262213886E-1,-9.756733894E0,1.010967612E0,9.809783058E0
2.436785472E0,-1.214357466E-1,-9.732806206E0,1.025324464E0,9.787418124E0
2.439258962E0,-1.070788130E-1,-9.742377281E0,1.020538807E0,9.796268699E0
2.441732451E0,-1.118644550E-1,-9.699306488E0,1.006181955E0,9.751997853E0
2.444205993E0,-1.070788130E-1,-9.680164337E0,1.034895778E0,9.735915814E0
2.446679482E0,-1.118644550E-1,-9.637093544E0,1.010967612E0,9.690621298E0
2.449152972E0,-1.070788130E-1,-9.632308006E0,1.044467092E0,9.689361945E0
2.451626462E0,-9.272187948E-2,-9.617950439E0,1.034895778E0,9.673912201E0
2.454100003E0,-1.262213886E-1,-9.574879646E0,1.020538807E0,9.629940370E0
2.456573441E0,-1.310070455E-1,-9.574879646E0,9.966106415E-1,9.627497902E0
2.459046930E0,-1.310070455E-1,-9.541379929E0,9.918249846E-1,9.593685975E0
2.461520420E0,-1.118644550E-1,-9.527023315E0,1.001396298E0,9.580160826E0
2.463993962E0,-1.022931710E-1,-9.507881165E0,1.001396298E0,9.561017868E0
2.466467451E0,-1.214357466E-1,-9.498309135E0,9.678967595E-1,9.548269331E0
2.468940941E0,-1.214357466E-1,-9.527023315E0,9.535398483E-1,9.575393367E0
2.471414430E0,-1.022931710E-1,-9.570094109E0,9.152546525E-1,9.614304770E0
2.473887972E0,-1.118644550E-1,-9.546165466E0,8.626125455E-1,9.585712763E0
2.476361462E0,-1.022931710E-1,-9.527023315E0,8.721838593E-1,9.567410404E0
2.478834951E0,-8.315058798E-2,-9.555737495E0,8.626125455E-1,9.594953544E0
2.481308441E0,-8.315058798E-2,-9.603593826E0,8.291130662E-1,9.639676181E0
2.483781982E0,-4.965107143E-2,-9.651450157E0,8.673982024E-1,9.690476511E0
2.486255472E0,-4.007977992E-2,-9.637093544E0,8.482556343E-1,9.674436210E0
2.488728962E0,-2.572284266E-2,-9.675378799E0,8.673982024E-1,9.714216192E0
2.491202451E0,-1.794616925E-3,-9.732806206E0,8.817551732E-1,9.772666578E0
2.493675993E0,2.991028363E-3,-9.708877563E0,8.817551732E-1,9.748836068E0
2.496149482E0,1.256231871E-2,-9.756733894E0,9.248259664E-1,9.800475354E0
2.498622972E0,1.256231871E-2,-9.761520386E0,9.200403094E-1,9.804790269E0
2.501077972E0,5.084748194E-2,-9.780662537E0,9.200403094E-1,9.823971666E0
2.503532972E0,2.213360928E-2,-9.795019150E0,9.008977413E-1,9.836386876E0
2.505987972E0,6.041877344E-2,-9.809376717E0,9.631111026E-1,9.856728920E0
2.508442972E0,7.477571070E-2,-9.857233047E0,9.583254457E-1,9.903990227E0
2.510897972E0,7.477571070E-2,-9.838089943E0,9.487541914E-1,9.884014349E0
2.513352972E0,9.870393574E-2,-9.804591179E0,9.439685345E-1,9.850422694E0
2.515807972E0,9.391828626E-2,-9.823733330E0,9.583254457E-1,9.870812775E0
2.518262972E0,1.274178028E-1,-9.785448074E0,9.200403094E-1,9.829430476E0
2.520807972E0,1.322034448E-1,-9.780662537E0,9.678967595E-1,9.829326607E0
2.523352972E0,1.513460279E-1,-9.766305923E0,9.583254457E-1,9.814378466E0
2.525832920E0,1.417747438E-1,-9.742377281E0,9.343972206E-1,9.788110815E0
2.528307243E0,1.369891018E-1,-9.723235130E0,9.870393276E-1,9.774165645E0
2.530781566E0,1.082752272E-1,-9.651450157E0,9.774680734E-1,9.701425539E0
2.533255889E0,1.369891018E-1,-9.651450157E0,9.918249846E-1,9.703245485E0
2.535730212E0,1.465603858E-1,-9.617950439E0,1.001396298E0,9.671051915E0
2.538204587E0,1.609173268E-1,-9.598808289E0,1.001396298E0,9.652243754E0
2.540672295E0,1.226321608E-1,-9.570094109E0,1.049252748E0,9.628222641E0
2.543146462E0,1.322034448E-1,-9.560523033E0,1.034895778E0,9.617280681E0
2.545620628E0,1.226321608E-1,-9.522237778E0,1.030110121E0,9.578579112E0
2.548094795E0,1.226321608E-1,-9.546165466E0,1.034895778E0,9.602880975E0
2.550568962E0,9.870393574E-2,-9.522237778E0,1.015753269E0,9.576769260E0
2.553043128E0,8.913264424E-2,-9.503094673E0,1.010967612E0,9.557133907E0
2.555517295E0,8.434699476E-2,-9.536594391E0,1.010967612E0,9.590401582E0
2.557991462E0,1.322034448E-1,-9.541379929E0,9.774680734E-1,9.592228757E0
2.560460316E0,1.274178028E-1,-9.570094109E0,9.726824164E-1,9.620241558E0
2.562934378E0,9.391828626E-2,-9.584450722E0,9.822536707E-1,9.635109681E0
2.565408389E0,9.870393574E-2,-9.598808289E0,9.535398483E-1,9.646559038E0
2.567882399E0,9.870393574E-2,-9.617950439E0,9.870393276E-1,9.668968909E0
2.570356409E0,6.999006122E-2,-9.632308006E0,9.535398483E-1,9.679643298E0
2.572830472E0,6.520441920E-2,-9.661021233E0,9.343972206E-1,9.706321705E0
2.575304482E0,6.041877344E-2,-9.641879082E0,1.001396298E0,9.693929915E0
2.577778545E0,4.606183618E-2,-9.641879082E0,9.918249846E-1,9.692867002E0
2.580248389E0,4.127619043E-2,-9.675378799E0,9.822536707E-1,9.725198245E0
2.582722295E0,2.213360928E-2,-9.680164337E0,9.918249846E-1,9.730867808E0
2.585196201E0,7.776673418E-3,-9.684949875E0,1.015753269E0,9.738073180E0
2.587670107E0,-1.615155302E-2,-9.694520950E0,1.044467092E0,9.750636330E0
2.590144066E0,-4.486542568E-2,-9.694520950E0,1.030110121E0,9.749198748E0
2.592617972E0,-3.050848842E-2,-9.694520950E0,1.077966571E0,9.754315924E0
2.595091878E0,-3.050848842E-2,-9.728020668E0,1.068395257E0,9.786561465E0
2.597565837E0,-6.879365444E-2,-9.718449593E0,1.077966571E0,9.778292641E0
2.600036305E0,-7.836493850E-2,-9.675378799E0,1.082752228E0,9.736089994E0
2.602510212E0,-8.793623000E-2,-9.651450157E0,1.101894855E0,9.714545547E0
2.604984014E0,-8.793623000E-2,-9.684949875E0,1.082752228E0,9.745683108E0
2.607457868E0,-1.070788130E-1,-9.675378799E0,1.101894855E0,9.738510823E0
2.609931670E0,-1.118644550E-1,-9.646664619E0,1.054038405E0,9.704723020E0
2.612405576E0,-1.262213886E-1,-9.641879082E0,1.077966571E0,9.702771562E0
2.614879378E0,-1.357926875E-1,-9.656235695E0,1.049252748E0,9.714023820E0
2.617353232E0,-1.310070455E-1,-9.670592308E0,1.034895778E0,9.726691509E0
2.619824378E0,-1.357926875E-1,-9.651450157E0,9.822536707E-1,9.702254999E0
2.622298128E0,-1.405783296E-1,-9.603593826E0,1.006181955E0,9.657182756E0
2.624771930E0,-1.166501045E-1,-9.665806770E0,9.631111026E-1,9.714371352E0
2.627245680E0,-1.214357466E-1,-9.694520950E0,9.678967595E-1,9.743475111E0
2.629719482E0,-1.166501045E-1,-9.661021233E0,9.774680734E-1,9.711044348E0
2.632193232E0,-1.262213886E-1,-9.675378799E0,9.583254457E-1,9.723542277E0
2.634666982E0,-1.118644550E-1,-9.694520950E0,9.583254457E-1,9.742414371E0
2.637140784E0,-8.315058798E-2,-9.680164337E0,9.535398483E-1,9.727370346E0
2.639612347E0,-9.750752151E-2,-9.732806206E0,9.391828775E-1,9.778501359E0
2.642086045E0,-8.315058798E-2,-9.718449593E0,9.391828775E-1,9.764079116E0
2.644559795E0,-4.965107143E-2,-9.756733894E0,9.487541914E-1,9.802879986E0
2.647033493E0,-3.050848842E-2,-9.761520386E0,9.343972206E-1,9.806187290E0
2.649507243E0,-3.050848842E-2,-9.756733894E0,9.774680734E-1,9.805622412E0
2.651980941E0,-2.093719877E-2,-9.723235130E0,1.015753269E0,9.776169724E0
2.654454639E0,3.170489892E-2,-9.737591743E0,1.010967612E0,9.789982312E0
2.656928337E0,1.256231871E-2,-9.742377281E0,1.025324464E0,9.796191258E0
2.659400368E0,2.691925503E-2,-9.732806206E0,1.049252748E0,9.789237591E0
2.661874066E0,4.127619043E-2,-9.728020668E0,1.054038405E0,9.785044037E0
2.664347764E0,2.213360928E-2,-9.694520950E0,1.073180914E0,9.753765613E0
2.666821409E0,4.127619043E-2,-9.694520950E0,1.097109199E0,9.756489572E0
2.669295055E0,1.734796353E-2,-9.742377281E0,1.097109199E0,9.803971881E0
2.671768805E0,-1.794616925E-3,-9.713663101E0,1.135394335E0,9.779794188E0
2.674242451E0,1.256231871E-2,-9.713663101E0,1.149751306E0,9.781479271E0
2.676716149E0,-2.093719877E-2,-9.737591743E0,1.140179992E0,9.804139011E0
2.679188441E0,-2.093719877E-2,-9.689735413E0,1.164108157E0,9.759434335E0
2.681662087E0,-4.486542568E-2,-9.675378799E0,1.173679471E0,9.746409150E0
2.684135732E0,-5.443671346E-2,-9.699306488E0,1.178465128E0,9.770787571E0
2.686609326E0,-7.836493850E-2,-9.670592308E0,1.154536963E0,9.739581729E0
2.689083024E0,-1.214357466E-1,-9.694520950E0,1.154536963E0,9.763781987E0
2.691556618E0,-1.405783296E-1,-9.656235695E0,1.159322619E0,9.726596476E0
2.694030264E0,-1.357926875E-1,-9.637093544E0,1.164108157E0,9.708097622E0
2.696503909E0,-1.980060786E-1,-9.641879082E0,1.140179992E0,9.711078676E0
2.698976409E0,-1.788634956E-1,-9.637093544E0,1.130608678E0,9.704835914E0
2.701450003E0,-2.027917206E-1,-9.589237213E0,1.140179992E0,9.658913253E0
2.703923597E0,-2.410768867E-1,-9.594022751E0,1.121037364E0,9.662303834E0
2.706397243E0,-2.458625287E-1,-9.603593826E0,1.106680512E0,9.670274273E0
2.708870837E0,-2.219343036E-1,-9.608379364E0,1.101894855E0,9.673902062E0
2.711344430E0,-2.841476798E-1,-9.613164902E0,1.063609719E0,9.675998396E0
2.713818076E0,-2.697907388E-1,-9.598808289E0,1.106680512E0,9.666160011E0
2.716291670E0,-2.745763958E-1,-9.598808289E0,1.049252748E0,9.659888410E0
2.718764430E0,-2.315055877E-1,-9.594022751E0,1.020538807E0,9.650925698E0
2.721238024E0,-2.075773627E-1,-9.555737495E0,1.006181955E0,9.610806916E0
2.723711618E0,-2.410768867E-1,-9.565308571E0,1.001396298E0,9.620605005E0
2.726185212E0,-1.932204217E-1,-9.546165466E0,1.001396298E0,9.600489768E0
2.728658805E0,-1.884347796E-1,-9.584450722E0,9.631111026E-1,9.634562071E0
2.731132347E0,-1.740778536E-1,-9.574879646E0,9.631111026E-1,9.624770456E0
2.733605941E0,-1.692921966E-1,-9.570094109E0,9.774680734E-1,9.621372300E0
2.736079534E0,-1.645065546E-1,-9.589237213E0,9.248259664E-1,9.635135484E0
2.738552451E0,-1.501496136E-1,-9.608379364E0,9.296116233E-1,9.654412291E0
2.741025993E0,-1.405783296E-1,-9.608379364E0,9.631111026E-1,9.657551411E0
2.743499587E0,-1.166501045E-1,-9.622735977E0,9.726824164E-1,9.672474658E0
2.745973180E0,-1.118644550E-1,-9.651450157E0,9.822536707E-1,9.701949601E0
2.748446722E0,-8.793623000E-2,-9.627521515E0,9.774680734E-1,9.677414279E0
2.750920316E0,-1.118644550E-1,-9.632308006E0,9.822536707E-1,9.682907283E0
2.753393857E0,-8.315058798E-2,-9.651450157E0,9.678967595E-1,9.700217951E0
2.755867451E0,-6.400800496E-2,-9.689735413E0,9.822536707E-1,9.739604287E0
2.758340420E0,-3.050848842E-2,-9.684949875E0,9.966106415E-1,9.736139770E0
2.760813962E0,-7.357929647E-2,-9.689735413E0,1.006181955E0,9.742114165E0
2.763287503E0,-6.879365444E-2,-9.665806770E0,9.918249846E-1,9.716803481E0
2.765761097E0,-6.879365444E-2,-9.684949875E0,9.822536707E-1,9.734875907E0
2.768234639E0,-7.357929647E-2,-9.670592308E0,1.010967612E0,9.723570590E0
2.770708180E0,-8.793623000E-2,-9.684949875E0,1.001396298E0,9.736980097E0
2.773181722E0,-1.118644550E-1,-9.694520950E0,1.030110121E0,9.749737277E0
2.775655316E0,-8.315058798E-2,-9.670592308E0,1.116251707E0,9.735157291E0
2.778128389E0,-1.214357466E-1,-9.651450157E0,1.097109199E0,9.714364898E0
2.780601930E0,-1.022931710E-1,-9.651450157E0,1.116251707E0,9.716325020E0
2.783075472E0,-1.070788130E-1,-9.627521515E0,1.121037364E0,9.693160535E0
2.785549014E0,-1.645065546E-1,-9.632308006E0,1.144965649E0,9.701513607E0
2.788022555E0,-1.692921966E-1,-9.617950439E0,1.149751306E0,9.687907853E0
2.790496097E0,-1.597209126E-1,-9.613164902E0,1.188036442E0,9.687614814E0
2.792969639E0,-1.884347796E-1,-9.589237213E0,1.216750264E0,9.667960447E0
2.795443180E0,-2.410768867E-1,-9.565308571E0,1.202393413E0,9.643598708E0
2.797916409E0,-2.315055877E-1,-9.617950439E0,1.216750264E0,9.697373185E0
2.800389951E0,-2.554338276E-1,-9.594022751E0,1.192822099E0,9.671263803E0
2.802863493E0,-2.219343036E-1,-9.579665184E0,1.221535921E0,9.659782082E0
2.805336982E0,-2.362912297E-1,-9.622735977E0,1.240678549E0,9.705264782E0
2.807810524E0,-2.315055877E-1,-9.613164902E0,1.235892892E0,9.695048505E0
2.810284066E0,-2.219343036E-1,-9.608379364E0,1.183250785E0,9.683506145E0
2.812757607E0,-2.602194548E-1,-9.613164902E0,1.188036442E0,9.689792783E0
2.815231149E0,-2.650051117E-1,-9.661021233E0,1.159322619E0,9.733939999E0
2.817704430E0,-2.458625287E-1,-9.689735413E0,1.154536963E0,9.761371643E0
2.820177972E0,-2.219343036E-1,-9.699306488E0,1.192822099E0,9.774897736E0
2.822651462E0,-2.123630047E-1,-9.718449593E0,1.173679471E0,9.791367832E0
2.825125003E0,-1.884347796E-1,-9.713663101E0,1.159322619E0,9.784415539E0
2.827598545E0,-2.123630047E-1,-9.723235130E0,1.154536963E0,9.793842711E0
2.830072087E0,-1.692921966E-1,-9.723235130E0,1.125823021E0,9.789659786E0
2.832545576E0,-1.070788130E-1,-9.723235130E0,1.140179992E0,9.790443181E0
2.835019118E0,-1.022931710E-1,-9.732806206E0,1.144965649E0,9.800455442E0
2.837492399E0,-8.315058798E-2,-9.718449593E0,1.073180914E0,9.777877775E0
2.839965889E0,-8.315058798E-2,-9.718449593E0,1.125823021E0,9.783795479E0
2.842439430E0,-8.315058798E-2,-9.704092026E0,1.101894855E0,9.766805432E0
2.844912972E0,-5.922235921E-2,-9.694520950E0,1.140179992E0,9.761519050E0
2.847386462E0,-7.836493850E-2,-9.656235695E0,1.173679471E0,9.727618021E0
2.849860003E0,-8.793623000E-2,-9.665806770E0,1.116251707E0,9.730445579E0
2.852333545E0,-7.357929647E-2,-9.637093544E0,1.116251707E0,9.701804150E0
2.854807034E0,-7.357929647E-2,-9.632308006E0,1.178465128E0,9.704408869E0
2.857280420E0,-9.750752151E-2,-9.594022751E0,1.188036442E0,9.667792450E0
2.859753909E0,-9.272187948E-2,-9.584450722E0,1.144965649E0,9.653043008E0
2.862227451E0,-1.070788130E-1,-9.550951958E0,1.197607756E0,9.626339569E0
2.864700941E0,-9.750752151E-2,-9.565308571E0,1.183250785E0,9.638709363E0
2.867174482E0,-7.836493850E-2,-9.574879646E0,1.173679471E0,9.646863988E0
2.869648024E0,-8.793623000E-2,-9.541379929E0,1.140179992E0,9.609665662E0
2.872121514E0,-1.070788130E-1,-9.570094109E0,1.183250785E0,9.643560003E0
2.874595055E0,-6.879365444E-2,-9.560523033E0,1.211964726E0,9.637281345E0
2.877068441E0,-7.836493850E-2,-9.579665184E0,1.154536963E0,9.649304726E0
2.879541930E0,-1.166501045E-1,-9.560523033E0,1.154536963E0,9.630688631E0
2.882015472E0,-7.836493850E-2,-9.574879646E0,1.144965649E0,9.643412655E0
2.884488962E0,-7.357929647E-2,-9.565308571E0,1.149751306E0,9.634441864E0
2.886962503E0,-1.070788130E-1,-9.589237213E0,1.144965649E0,9.657944012E0
2.889435993E0,-6.879365444E-2,-9.579665184E0,1.154536963E0,9.649231742E0
2.891909534E0,-6.879365444E-2,-9.617950439E0,1.164108157E0,9.688387432E0
2.894383024E0,-8.793623000E-2,-9.608379364E0,1.130608678E0,9.675069135E0
2.896856462E0,-1.070788130E-1,-9.627521515E0,1.130608678E0,9.694272143E0
2.899329951E0,-8.793623000E-2,-9.646664619E0,1.130608678E0,9.713091529E0
2.901803493E0,-8.793623000E-2,-9.651450157E0,1.164108157E0,9.721798739E0
2.904276982E0,-6.400800496E-2,-9.684949875E0,1.135394335E0,9.751485600E0
2.906750524E0,-4.486542568E-2,-9.713663101E0,1.144965649E0,9.781012733E0
2.909224014E0,-4.486542568E-2,-9.684949875E0,1.183250785E0,9.757066639E0
2.911697503E0,-3.529413417E-2,-9.704092026E0,1.240678549E0,9.783145250E0
2.914171045E0,-2.093719877E-2,-9.689735413E0,1.168893814E0,9.760006326E0
2.916644430E0,-3.050848842E-2,-9.699306488E0,1.197607756E0,9.773010869E0
2.919117920E0,-2.093719877E-2,-9.689735413E0,1.216750264E0,9.765853365E0
2.921591409E0,-2.572284266E-2,-9.713663101E0,1.235892892E0,9.792004072E0
2.924064951E0,-1.136590727E-2,-9.728020668E0,1.221535921E0,9.804420702E0
2.926538441E0,-6.580262445E-3,-9.728020668E0,1.216750264E0,9.803821226E0
2.929011982E0,-6.580262445E-3,-9.747162819E0,1.289133191E0,9.832044076E0
2.931485472E0,-1.615155302E-2,-9.756733894E0,1.245464206E0,9.835918780E0
2.933958962E0,2.213360928E-2,-9.790233612E0,1.259821177E0,9.870983410E0
2.936432451E0,-1.136590727E-2,-9.771091461E0,1.259821177E0,9.851979848E0
2.938905993E0,-1.794616925E-3,-9.751948357E0,1.250249863E0,9.831766102E0
2.941379482E0,-4.007977992E-2,-9.771091461E0,1.255035520E0,9.851444000E0
2.943853024E0,-3.050848842E-2,-9.771091461E0,1.259821177E0,9.852020529E0
2.946326462E0,-3.529413417E-2,-9.775876999E0,1.240678549E0,9.854354369E0
2.948800003E0,-4.486542568E-2,-9.814162254E0,1.188036442E0,9.885910390E0
2.951273545E0,-3.050848842E-2,-9.799804688E0,1.202393413E0,9.873340499E0
2.953747034E0,-6.879365444E-2,-9.785448074E0,1.168893814E0,9.855254402E0
2.956220420E0,-7.357929647E-2,-9.804591179E0,1.144965649E0,9.871492716E0
2.958693962E0,-8.315058798E-2,-9.790233612E0,1.130608678E0,9.855651383E0
2.961167451E0,-9.272187948E-2,-9.742377281E0,1.154536963E0,9.810987108E0
2.963640993E0,-1.118644550E-1,-9.771091461E0,1.111466169E0,9.834739399E0
2.966114430E0,-1.070788130E-1,-9.756733894E0,1.111466169E0,9.820421539E0
2.968587972E0,-1.070788130E-1,-9.704092026E0,1.130608678E0,9.770319539E0
2.971061514E0,-1.405783296E-1,-9.713663101E0,1.144965649E0,9.781920029E0
2.973535003E0,-1.501496136E-1,-9.713663101E0,1.121037364E0,9.779290389E0
2.976008441E0,-1.692921966E-1,-9.675378799E0,1.121037364E0,9.741577877E0
2.978481982E0,-1.932204217E-1,-9.641879082E0,1.116251707E0,9.708201905E0
2.980955472E0,-1.597209126E-1,-9.617950439E0,1.121037364E0,9.684379495E0
2.983429014E0,-1.836491376E-1,-9.589237213E0,1.092323542E0,9.652997879E0
2.985902451E0,-2.027917206E-1,-9.546165466E0,1.073180914E0,9.608439877E0
2.988375993E0,-2.027917206E-1,-9.555737495E0,1.087537885E0,9.619562475E0
2.990849534E0,-2.027917206E-1,-9.555737495E0,1.111466169E0,9.622297055E0
2.993323024E0,-2.171486616E-1,-9.546165466E0,1.087537885E0,9.610367699E0
2.995796462E0,-1.980060786E-1,-9.522237778E0,1.092323542E0,9.586729861E0
2.998270003E0,-1.836491376E-1,-9.527023315E0,1.087537885E0,9.590653727E0
3.000743493E0,-1.692921966E-1,-9.507881165E0,1.077966571E0,9.570291323E0
3.003217034E0,-1.453639716E-1,-9.498309135E0,1.063609719E0,9.558779878E0
3.005690472E0,-1.214357466E-1,-9.512666702E0,1.049252748E0,9.571128761E0
3.008164014E0,-1.310070455E-1,-9.512666702E0,1.077966571E0,9.574445287E0
3.010637503E0,-9.272187948E-2,-9.560523033E0,1.030110121E0,9.616305157E0
3.013111045E0,-8.315058798E-2,-9.536594391E0,1.049252748E0,9.594502485E0
3.015584430E0,-4.486542568E-2,-9.565308571E0,1.049252748E0,9.622789216E0
3.018057972E0,-2.572284266E-2,-9.584450722E0,1.082752228E0,9.645450207E0
3.020531462E0,-4.965107143E-2,-9.608379364E0,1.135394335E0,9.675357333E0
3.023004951E0,7.776673418E-3,-9.627521515E0,1.121037364E0,9.692572196E0
3.025478441E0,5.084748194E-2,-9.646664619E0,1.097109199E0,9.708984104E0
3.027951982E0,4.127619043E-2,-9.699306488E0,1.111466169E0,9.762868796E0
3.030425472E0,6.999006122E-2,-9.708877563E0,1.135394335E0,9.775291425E0
3.032898962E0,6.041877344E-2,-9.728020668E0,1.116251707E0,9.792040360E0
3.035372451E0,9.391828626E-2,-9.742377281E0,1.154536963E0,9.810998488E0
3.037845993E0,1.322034448E-1,-9.747162819E0,1.130608678E0,9.813405971E0
3.040319482E0,1.034895778E-1,-9.771091461E0,1.125823021E0,9.836280593E0
3.042792972E0,9.391828626E-2,-9.809376717E0,1.125823021E0,9.874217422E0
3.045266462E0,1.082752272E-1,-9.814162254E0,1.164108157E0,9.883554628E0
3.047740003E0,1.178465188E-1,-9.775876999E0,1.121037364E0,9.840649555E0
3.050213493E0,1.082752272E-1,-9.747162819E0,1.173679471E0,9.818168365E0
3.052686982E0,1.130608693E-1,-9.785448074E0,1.154536963E0,9.853970386E0
3.055160472E0,1.226321608E-1,-9.737591743E0,1.154536963E0,9.806563476E0
3.057634014E0,7.477571070E-2,-9.737591743E0,1.183250785E0,9.809503901E0
3.060107503E0,8.434699476E-2,-9.732806206E0,1.183250785E0,9.804831129E0
3.062580993E0,7.956135273E-2,-9.689735413E0,1.197607756E0,9.763788543E0
3.065054482E0,1.734796353E-2,-9.646664619E0,1.255035520E0,9.727977867E0
3.067528024E0,2.691925503E-2,-9.670592308E0,1.245464206E0,9.750500568E0
3.070001514E0,-1.794616925E-3,-9.670592308E0,1.250249863E0,9.751076019E0
3.072475003E0,-4.965107143E-2,-9.598808289E0,1.259821177E0,9.681256901E0
3.074948441E0,-5.922235921E-2,-9.579665184E0,1.264606714E0,9.662956197E0
3.077421982E0,-9.272187948E-2,-9.579665184E0,1.259821177E0,9.662594464E0
3.079895472E0,-9.272187948E-2,-9.560523033E0,1.235892892E0,9.640520176E0
3.082368962E0,-1.405783296E-1,-9.570094109E0,1.235892892E0,9.650590384E0
3.084842451E0,-1.597209126E-1,-9.546165466E0,1.250249863E0,9.629013999E0
3.087315993E0,-1.549352705E-1,-9.574879646E0,1.231107235E0,9.654944340E0
3.089789482E0,-1.501496136E-1,-9.584450722E0,1.216750264E0,9.662542199E0
3.092262972E0,-2.027917206E-1,-9.579665184E0,1.178465128E0,9.654008990E0
3.094736462E0,-1.549352705E-1,-9.603593826E0,1.178465128E0,9.676869296E0
3.097210003E0,-1.645065546E-1,-9.622735977E0,1.168893814E0,9.694865798E0
3.099683493E0,-1.501496136E-1,-9.603593826E0,1.125823021E0,9.670524120E0
3.102156982E0,-1.788634956E-1,-9.608379364E0,1.130608678E0,9.676322759E0
3.104630472E0,-1.740778536E-1,-9.646664619E0,1.135394335E0,9.714811459E0
3.107104014E0,-1.980060786E-1,-9.646664619E0,1.092323542E0,9.710330345E0
3.109577503E0,-1.980060786E-1,-9.637093544E0,1.097109199E0,9.701362120E0
3.112050993E0,-2.123630047E-1,-9.665806770E0,1.087537885E0,9.729113897E0
3.114524430E0,-2.123630047E-1,-9.670592308E0,1.054038405E0,9.730182454E0
3.116997972E0,-2.075773627E-1,-9.661021233E0,1.025324464E0,9.717495041E0
3.119471462E0,-1.932204217E-1,-9.637093544E0,1.044467092E0,9.695453451E0
3.121944951E0,-2.219343036E-1,-9.694520950E0,1.020538807E0,9.750614891E0
3.124418441E0,-1.836491376E-1,-9.646664619E0,1.006181955E0,9.700735406E0
3.126891982E0,-2.075773627E-1,-9.656235695E0,1.001396298E0,9.710240507E0
3.129365472E0,-1.884347796E-1,-9.661021233E0,9.966106415E-1,9.714117134E0
3.131838962E0,-1.884347796E-1,-9.641879082E0,9.918249846E-1,9.694589042E0
3.134312451E0,-1.645065546E-1,-9.651450157E0,9.870393276E-1,9.703185002E0
3.136785993E0,-1.788634956E-1,-9.613164902E0,9.583254457E-1,9.662469624E0
3.139259482E0,-1.836491376E-1,-9.641879082E0,9.535398483E-1,9.690655162E0
3.141732972E0,-1.692921966E-1,-9.641879082E0,9.631111026E-1,9.691340210E0
3.144206462E0,-1.310070455E-1,-9.670592308E0,9.535398483E-1,9.718372121E0
3.146680003E0,-1.118644550E-1,-9.665806770E0,9.726824164E-1,9.715268666E0
3.149153493E0,-1.262213886E-1,-9.656235695E0,9.918249846E-1,9.707859519E0
3.151626982E0,-1.022931710E-1,-9.651450157E0,1.010967612E0,9.704793122E0
3.154100472E0,-8.315058798E-2,-9.641879082E0,1.044467092E0,9.698642057E0
3.156574014E0,-6.879365444E-2,-9.665806770E0,1.058824062E0,9.723870705E0
3.159047503E0,-6.879365444E-2,-9.656235695E0,1.063609719E0,9.714879618E0
3.161520993E0,-7.836493850E-2,-9.656235695E0,1.054038405E0,9.713908885E0
3.163994482E0,-6.400800496E-2,-9.665806770E0,1.068395257E0,9.724884882E0
3.166468024E0,-4.486542568E-2,-9.646664619E0,1.135394335E0,9.713355315E0
3.168941514E0,-2.093719877E-2,-9.617950439E0,1.140179992E0,9.685319790E0
3.171415003E0,-4.007977992E-2,-9.617950439E0,1.164108157E0,9.688226094E0
3.173888441E0,-3.050848842E-2,-9.627521515E0,1.144965649E0,9.695413742E0
3.176361982E0,-2.572284266E-2,-9.617950439E0,1.130608678E0,9.684209224E0
3.178835472E0,-4.007977992E-2,-9.617950439E0,1.192822099E0,9.691718197E0
3.181308962E0,-4.007977992E-2,-9.603593826E0,1.221535921E0,9.681052152E0
3.183782451E0,-4.486542568E-2,-9.589237213E0,1.178465128E0,9.661483493E0
3.186255993E0,-6.400800496E-2,-9.570094109E0,1.168893814E0,9.641426815E0
3.188729482E0,-6.400800496E-2,-9.579665184E0,1.221535921E0,9.657444386E0
3.191202972E0,-7.836493850E-2,-9.613164902E0,1.197607756E0,9.687793600E0
3.193676462E0,-7.836493850E-2,-9.598808289E0,1.202393413E0,9.674141385E0
3.196150003E0,-9.750752151E-2,-9.574879646E0,1.168893814E0,9.646457417E0
3.198623493E0,-1.310070455E-1,-9.560523033E0,1.159322619E0,9.631448097E0
3.201096982E0,-1.549352705E-1,-9.608379364E0,1.154536963E0,9.678735172E0
3.203570472E0,-1.453639716E-1,-9.622735977E0,1.159322619E0,9.693410510E0
3.206044014E0,-1.788634956E-1,-9.632308006E0,1.116251707E0,9.698420879E0
3.208517503E0,-1.980060786E-1,-9.656235695E0,1.125823021E0,9.723660405E0
3.210990993E0,-1.836491376E-1,-9.661021233E0,1.149751306E0,9.730929366E0
3.213464430E0,-1.836491376E-1,-9.665806770E0,1.116251707E0,9.731781204E0
3.215937972E0,-1.980060786E-1,-9.699306488E0,1.058824062E0,9.758937501E0
3.218411462E0,-2.123630047E-1,-9.742377281E0,1.058824062E0,9.802046803E0
3.220884951E0,-1.645065546E-1,-9.747162819E0,1.068395257E0,9.806921732E0
3.223358441E0,-1.740778536E-1,-9.785448074E0,1.068395257E0,9.845139183E0
3.225831982E0,-1.501496136E-1,-9.751948357E0,1.049252748E0,9.809381886E0
3.228305472E0,-1.357926875E-1,-9.780662537E0,1.068395257E0,9.839779862E0
3.230778962E0,-1.453639716E-1,-9.780662537E0,9.966106415E-1,9.832381355E0
3.233252451E0,-1.166501045E-1,-9.790233612E0,1.030110121E0,9.844968679E0
3.235725993E0,-1.166501045E-1,-9.790233612E0,1.020538807E0,9.843971804E0
3.238199482E0,-1.166501045E-1,-9.785448074E0,1.006181955E0,9.837733651E0
3.240672972E0,-9.750752151E-2,-9.766305923E0,1.030110121E0,9.820965633E0
3.243146462E0,-8.793623000E-2,-9.728020668E0,1.049252748E0,9.784837772E0
3.245619951E0,-9.272187948E-2,-9.708877563E0,1.068395257E0,9.767925538E0
3.248093493E0,-7.836493850E-2,-9.723235130E0,1.058824062E0,9.781030153E0
3.250566930E0,-3.529413417E-2,-9.670592308E0,1.030110121E0,9.725365192E0
3.253040472E0,-6.879365444E-2,-9.661021233E0,1.044467092E0,9.717560153E0
3.255514014E0,-8.793623000E-2,-9.665806770E0,1.049252748E0,9.722987434E0
3.257987503E0,-4.965107143E-2,-9.646664619E0,1.025324464E0,9.701128479E0
3.260460993E0,-5.443671346E-2,-9.627521515E0,1.068395257E0,9.686774608E0
3.262934482E0,-4.965107143E-2,-9.641879082E0,1.058824062E0,9.699969374E0
3.265408024E0,-5.443671346E-2,-9.656235695E0,1.020538807E0,9.710167383E0
3.267881514E0,-2.093719877E-2,-9.656235695E0,9.774680734E-1,9.705605081E0
3.270355003E0,-2.093719877E-2,-9.641879082E0,9.966106415E-1,9.693271035E0
3.272828441E0,3.170489892E-2,-9.670592308E0,1.030110121E0,9.725352829E0
3.275301982E0,2.991028363E-3,-9.656235695E0,1.020538807E0,9.710015252E0
3.277775472E0,-2.572284266E-2,-9.665806770E0,9.966106415E-1,9.717083665E0
3.280248962E0,-2.572284266E-2,-9.694520950E0,1.054038405E0,9.751686781E0
3.282722451E0,-1.794616925E-3,-9.689735413E0,1.010967612E0,9.742331913E0
3.285195993E0,1.734796353E-2,-9.670592308E0,1.020538807E0,9.724307482E0
3.287669482E0,2.991028363E-3,-9.675378799E0,1.049252748E0,9.732106411E0
3.290142972E0,7.776673418E-3,-9.661021233E0,1.058824062E0,9.718873398E0
3.292616462E0,5.563312769E-2,-9.670592308E0,1.063609719E0,9.729065539E0
3.295090003E0,6.041877344E-2,-9.661021233E0,1.068395257E0,9.720105458E0
3.297563493E0,5.563312769E-2,-9.694520950E0,1.106680512E0,9.757641788E0
3.300036982E0,6.999006122E-2,-9.680164337E0,1.125823021E0,9.745663532E0
3.302510472E0,4.127619043E-2,-9.680164337E0,1.116251707E0,9.744398555E0
3.304984014E0,1.256231871E-2,-9.708877563E0,1.101894855E0,9.771214542E0
3.307457503E0,4.127619043E-2,-9.632308006E0,1.125823021E0,9.697965700E0
3.309930993E0,3.649054468E-2,-9.694520950E0,1.116251707E0,9.758641601E0
3.312404430E0,3.170489892E-2,-9.689735413E0,1.154536963E0,9.758326351E0
3.314877972E0,1.256231871E-2,-9.670592308E0,1.116251707E0,9.734810284E0
3.317351462E0,2.991028363E-3,-9.680164337E0,1.097109199E0,9.742137298E0
3.319824951E0,3.649054468E-2,-9.732806206E0,1.144965649E0,9.799989517E0
3.322298441E0,-2.093719877E-2,-9.775876999E0,1.116251707E0,9.839422104E0
3.324771982E0,-6.580262445E-3,-9.780662537E0,1.077966571E0,9.839888967E0
3.327245472E0,-1.136590727E-2,-9.771091461E0,1.092323542E0,9.831964618E0
3.329718962E0,-2.093719877E-2,-9.766305923E0,1.097109199E0,9.827757544E0
3.332192451E0,-6.580262445E-3,-9.790233612E0,1.092323542E0,9.850984123E0
3.334665993E0,-3.050848842E-2,-9.771091461E0,1.077966571E0,9.830420695E0
3.337139482E0,-7.357929647E-2,-9.795019150E0,1.073180914E0,9.853909444E0
3.339612972E0,-8.793623000E-2,-9.790233612E0,1.121037364E0,9.854599522E0
3.342086462E0,-9.750752151E-2,-9.756733894E0,1.082752228E0,9.817113445E0
3.344560003E0,-1.070788130E-1,-9.766305923E0,1.077966571E0,9.826200140E0
3.347033493E0,-1.214357466E-1,-9.785448074E0,1.054038405E0,9.842801309E0
3.349506982E0,-1.453639716E-1,-9.747162819E0,1.063609719E0,9.806099089E0
3.351980420E0,-1.549352705E-1,-9.699306488E0,1.058824062E0,9.758158621E0
3.354453962E0,-1.597209126E-1,-9.694520950E0,1.073180914E0,9.755048155E0
3.356927451E0,-1.549352705E-1,-9.723235130E0,1.054038405E0,9.781426445E0
3.359400941E0,-1.645065546E-1,-9.704092026E0,1.025324464E0,9.759495617E0
3.361874430E0,-1.932204217E-1,-9.651450157E0,9.726824164E-1,9.702264444E0
3.364347972E0,-1.836491376E-1,-9.680164337E0,1.020538807E0,9.735543542E0
3.366821462E0,-2.075773627E-1,-9.675378799E0,9.918249846E-1,9.728296874E0
3.369294951E0,-2.123630047E-1,-9.637093544E0,9.774680734E-1,9.688865458E0
3.371768441E0,-1.788634956E-1,-9.594022751E0,9.535398483E-1,9.642950945E0
3.374241982E0,-1.645065546E-1,-9.608379364E0,9.535398483E-1,9.656979582E0
3.376715472E0,-1.932204217E-1,-9.608379364E0,9.296116233E-1,9.655178191E0
3.379188962E0,-1.405783296E-1,-9.603593826E0,9.248259664E-1,9.649045534E0
3.381662451E0,-1.070788130E-1,-9.608379364E0,9.248259664E-1,9.653378836E0
3.384135993E0,-1.118644550E-1,-9.594022751E0,8.961120844E-1,9.636431034E0
3.386609482E0,-1.166501045E-1,-9.584450722E0,8.865407705E-1,9.626071754E0
3.389082972E0,-7.836493850E-2,-9.574879646E0,9.200403094E-1,9.619300155E0
3.391556462E0,-5.922235921E-2,-9.608379364E0,9.008977413E-1,9.650703499E0
3.394030003E0,-3.529413417E-2,-9.637093544E0,8.769695163E-1,9.676977482E0
3.396503493E0,1.734796353E-2,-9.608379364E0,8.291130662E-1,9.644100965E0
3.398976982E0,6.999006122E-2,-9.622735977E0,8.769695163E-1,9.662868199E0
3.401450472E0,5.563312769E-2,-9.646664619E0,8.817551732E-1,9.687039048E0
3.403924014E0,6.520441920E-2,-9.656235695E0,8.769695163E-1,9.696195901E0
3.406397503E0,1.178465188E-1,-9.699306488E0,8.865407705E-1,9.740451154E0
3.408870993E0,2.039881349E-1,-9.704092026E0,8.913264275E-1,9.747075254E0
3.411344430E0,1.800599098E-1,-9.708877563E0,9.200403094E-1,9.754035026E0
3.413817972E0,1.992024779E-1,-9.694520950E0,9.343972206E-1,9.741484294E0
3.416291462E0,2.135594189E-1,-9.680164337E0,9.296116233E-1,9.727043075E0
3.418764951E0,2.279163599E-1,-9.694520950E0,9.487541914E-1,9.743501262E0
3.421238441E0,2.279163599E-1,-9.665806770E0,9.583254457E-1,9.715871245E0
3.423711982E0,1.848455518E-1,-9.670592308E0,9.870393276E-1,9.722590709E0
3.426185472E0,2.279163599E-1,-9.675378799E0,1.030110121E0,9.732729712E0
3.428658962E0,2.422732860E-1,-9.617950439E0,1.049252748E0,9.678047237E0
3.431132451E0,1.944168359E-1,-9.632308006E0,1.068395257E0,9.693328833E0
3.433605993E0,1.896311939E-1,-9.632308006E0,1.101894855E0,9.696983541E0
3.436079482E0,1.609173268E-1,-9.603593826E0,1.101894855E0,9.667940889E0
3.438552972E0,1.369891018E-1,-9.617950439E0,1.077966571E0,9.679139869E0
3.441026462E0,1.082752272E-1,-9.641879082E0,1.121037364E0,9.707434291E0
3.443500003E0,6.520441920E-2,-9.613164902E0,1.106680512E0,9.676876190E0
3.445973493E0,1.734796353E-2,-9.627521515E0,1.101894855E0,9.690389246E0
3.448446982E0,-3.050848842E-2,-9.632308006E0,1.087537885E0,9.693555950E0
3.450920420E0,2.991028363E-3,-9.632308006E0,1.068395257E0,9.691379412E0
3.453393962E0,-4.007977992E-2,-9.646664619E0,1.097109199E0,9.708933683E0
3.455867451E0,-9.750752151E-2,-9.661021233E0,1.039681435E0,9.717292651E0
3.458340941E0,-1.166501045E-1,-9.680164337E0,1.030110121E0,9.735518255E0
3.460814430E0,-1.214357466E-1,-9.713663101E0,9.966106415E-1,9.765409887E0
3.463287972E0,-1.310070455E-1,-9.689735413E0,1.001396298E0,9.742224066E0
3.465761462E0,-1.501496136E-1,-9.708877563E0,9.918249846E-1,9.760561728E0
3.468234951E0,-1.549352705E-1,-9.713663101E0,9.774680734E-1,9.763948977E0
3.470708441E0,-1.597209126E-1,-9.732806206E0,9.918249846E-1,9.784515533E0
3.473181982E0,-1.501496136E-1,-9.718449593E0,9.678967595E-1,9.767683017E0
3.475655472E0,-1.788634956E-1,-9.785448074E0,9.391828775E-1,9.832042038E0
3.478128962E0,-1.692921966E-1,-9.771091461E0,9.439685345E-1,9.818042818E0
3.480602451E0,-1.357926875E-1,-9.761520386E0,9.774680734E-1,9.811277375E0
3.483075993E0,-9.750752151E-2,-9.751948357E0,9.726824164E-1,9.800822187E0
3.485549482E0,-1.022931710E-1,-9.804591179E0,9.343972206E-1,9.849546702E0
3.488022972E0,-1.310070455E-1,-9.718449593E0,9.343972206E-1,9.764144791E0
3.490496462E0,-1.070788130E-1,-9.737591743E0,9.248259664E-1,9.781996826E0
3.492970003E0,-9.272187948E-2,-9.728020668E0,9.439685345E-1,9.774152652E0
3.495443493E0,-8.315058798E-2,-9.670592308E0,9.248259664E-1,9.715069360E0
3.497916982E0,-5.443671346E-2,-9.627521515E0,9.583254457E-1,9.675253048E0
3.500390472E0,-3.529413417E-2,-9.680164337E0,9.487541914E-1,9.726611012E0
3.502864014E0,-3.529413417E-2,-9.651450157E0,9.678967595E-1,9.699925770E0
3.505337503E0,2.991028363E-3,-9.656235695E0,9.678967595E-1,9.704623686E0
3.507810993E0,2.691925503E-2,-9.675378799E0,9.583254457E-1,9.722760267E0
3.510284430E0,4.127619043E-2,-9.680164337E0,9.200403094E-1,9.723875744E0
3.512757972E0,6.041877344E-2,-9.661021233E0,9.583254457E-1,9.708623453E0
3.515231462E0,6.041877344E-2,-9.641879082E0,9.200403094E-1,9.685863763E0
3.517704951E0,8.434699476E-2,-9.656235695E0,9.104689956E-1,9.699430705E0
3.520178441E0,4.606183618E-2,-9.661021233E0,9.487541914E-1,9.707604620E0
3.522651982E0,1.178465188E-1,-9.661021233E0,9.631111026E-1,9.709624197E0
3.525125472E0,1.322034448E-1,-9.665806770E0,9.678967595E-1,9.715046187E0
3.527598962E0,9.870393574E-2,-9.622735977E0,9.343972206E-1,9.668499797E0
3.530072451E0,1.322034448E-1,-9.598808289E0,9.918249846E-1,9.650819401E0
3.532545993E0,1.034895778E-1,-9.656235695E0,1.010967612E0,9.709565047E0
3.535019482E0,7.477571070E-2,-9.622735977E0,1.034895778E0,9.678514781E0
3.537492972E0,4.127619043E-2,-9.622735977E0,1.030110121E0,9.677803380E0
3.539966462E0,9.391828626E-2,-9.613164902E0,1.049252748E0,9.670713076E0
3.542440003E0,1.082752272E-1,-9.646664619E0,1.058824062E0,9.705203254E0
3.544913493E0,7.477571070E-2,-9.617950439E0,1.092323542E0,9.680068842E0
3.547386982E0,5.563312769E-2,-9.594022751E0,1.125823021E0,9.660012684E0
3.549860420E0,1.734796353E-2,-9.622735977E0,1.159322619E0,9.692336023E0
3.552333962E0,1.256231871E-2,-9.632308006E0,1.149751306E0,9.700692934E0
3.554807451E0,2.213360928E-2,-9.670592308E0,1.135394335E0,9.737040915E0
3.557280941E0,-1.615155302E-2,-9.670592308E0,1.159322619E0,9.739848325E0
3.559754430E0,-1.136590727E-2,-9.651450157E0,1.149751306E0,9.719698935E0
3.562227972E0,-2.572284266E-2,-9.689735413E0,1.130608678E0,9.755506651E0
3.564701462E0,-3.050848842E-2,-9.694520950E0,1.121037364E0,9.759169637E0
3.567174951E0,-3.529413417E-2,-9.689735413E0,1.111466169E0,9.753336613E0
3.569648441E0,-4.965107143E-2,-9.728020668E0,1.111466169E0,9.791435461E0
3.572121982E0,-8.315058798E-2,-9.699306488E0,1.121037364E0,9.764229880E0
3.574595472E0,-7.357929647E-2,-9.708877563E0,1.087537885E0,9.769874928E0
3.577068962E0,-9.272187948E-2,-9.708877563E0,1.097109199E0,9.771107894E0
3.579542451E0,-1.118644550E-1,-9.728020668E0,1.054038405E0,9.785596391E0
3.582015993E0,-9.750752151E-2,-9.713663101E0,1.044467092E0,9.770141763E0
3.584489482E0,-9.272187948E-2,-9.699306488E0,1.063609719E0,9.757889594E0
3.586962972E0,-9.750752151E-2,-9.689735413E0,1.068395257E0,9.748946020E0
3.589436462E0,-1.214357466E-1,-9.713663101E0,1.058824062E0,9.771955069E0
3.591910003E0,-9.272187948E-2,-9.728020668E0,1.039681435E0,9.783860227E0
3.594383493E0,-9.272187948E-2,-9.737591743E0,9.870393276E-1,9.787928123E0
3.596856982E0,-1.070788130E-1,-9.680164337E0,1.020538807E0,9.734400183E0
3.599330472E0,-1.118644550E-1,-9.699306488E0,1.058824062E0,9.757569800E0
3.601804014E0,-1.166501045E-1,-9.713663101E0,1.063609719E0,9.772416473E0
3.604277503E0,-1.070788130E-1,-9.713663101E0,1.039681435E0,9.769731532E0
3.606750993E0,-7.836493850E-2,-9.670592308E0,1.034895778E0,9.726124918E0
3.609224430E0,-1.166501045E-1,-9.665806770E0,9.870393276E-1,9.716772839E0
3.611697972E0,-9.272187948E-2,-9.684949875E0,1.020538807E0,9.739011802E0
3.614171462E0,-1.022931710E-1,-9.675378799E0,9.774680734E-1,9.725166458E0
3.616644951E0,-9.272187948E-2,-9.665806770E0,9.966106415E-1,9.717491993E0
3.619118441E0,-6.400800496E-2,-9.637093544E0,9.391828775E-1,9.682960987E0
3.621591982E0,-8.315058798E-2,-9.656235695E0,9.822536707E-1,9.706421796E0
3.624065472E0,-9.750752151E-2,-9.661021233E0,9.870393276E-1,9.711801358E0
3.626538962E0,-6.879365444E-2,-9.665806770E0,9.439685345E-1,9.712035301E0
3.629012451E0,-7.357929647E-2,-9.617950439E0,9.631111026E-1,9.666331650E0
3.631485993E0,-5.443671346E-2,-9.661021233E0,9.726824164E-1,9.710015741E0
3.633959482E0,-4.007977992E-2,-9.656235695E0,9.583254457E-1,9.703756069E0
3.636432972E0,-4.007977992E-2,-9.627521515E0,9.678967595E-1,9.676135646E0
3.638906462E0,-7.357929647E-2,-9.613164902E0,9.631111026E-1,9.661570076E0
3.641380003E0,-5.443671346E-2,-9.613164902E0,1.001396298E0,9.665334828E0
3.643853493E0,-6.879365444E-2,-9.632308006E0,9.966106415E-1,9.683972473E0
3.646326982E0,-6.400800496E-2,-9.622735977E0,9.870393276E-1,9.673437411E0
3.648800420E0,-3.529413417E-2,-9.632308006E0,1.010967612E0,9.685280518E0
3.651273962E0,-3.050848842E-2,-9.603593826E0,1.006181955E0,9.656207707E0
3.653747451E0,-3.050848842E-2,-9.622735977E0,1.039681435E0,9.678786904E0
3.656220941E0,-4.486542568E-2,-9.627521515E0,1.025324464E0,9.682069700E0
3.658694430E0,-4.965107143E-2,-9.608379364E0,1.006181955E0,9.661046597E0
3.661167972E0,-1.615155302E-2,-9.617950439E0,1.034895778E0,9.673481317E0
3.663641462E0,-1.794616925E-3,-9.641879082E0,1.044467092E0,9.698285774E0
3.666114951E0,-1.136590727E-2,-9.680164337E0,1.087537885E0,9.741070240E0
3.668588441E0,1.256231871E-2,-9.675378799E0,1.087537885E0,9.736316109E0
3.671061982E0,2.691925503E-2,-9.646664619E0,1.106680512E0,9.709974494E0
3.673535472E0,2.213360928E-2,-9.670592308E0,1.140179992E0,9.737600110E0
3.676008962E0,1.734796353E-2,-9.708877563E0,1.125823021E0,9.773949149E0
3.678482451E0,1.734796353E-2,-9.699306488E0,1.140179992E0,9.766107603E0
3.680955993E0,2.691925503E-2,-9.718449593E0,1.130608678E0,9.784031026E0
3.683429482E0,5.563312769E-2,-9.732806206E0,1.140179992E0,9.799521524E0
3.685902972E0,2.213360928E-2,-9.728020668E0,1.135394335E0,9.794079656E0
3.688376462E0,4.606183618E-2,-9.718449593E0,1.106680512E0,9.781366261E0
3.690850003E0,4.127619043E-2,-9.751948357E0,1.106680512E0,9.814628991E0
3.693323493E0,1.256231871E-2,-9.723235130E0,1.092323542E0,9.784407490E0
3.695796982E0,2.213360928E-2,-9.704092026E0,1.077966571E0,9.763805809E0
3.698270472E0,1.256231871E-2,-9.675378799E0,1.058824062E0,9.733150627E0
3.700744014E0,2.213360928E-2,-9.680164337E0,1.020538807E0,9.733836394E0
3.703217503E0,1.734796353E-2,-9.708877563E0,9.918249846E-1,9.759422180E0
3.705690993E0,-6.580262445E-3,-9.670592308E0,1.020538807E0,9.724294234E0
3.708164430E0,2.213360928E-2,-9.670592308E0,9.870393276E-1,9.720858610E0
3.710637972E0,1.734796353E-2,-9.637093544E0,9.966106415E-1,9.688503790E0
3.713111462E0,-1.615155302E-2,-9.608379364E0,9.631111026E-1,9.656541714E0
3.715584951E0,-6.580262445E-3,-9.646664619E0,9.439685345E-1,9.692742552E0
3.718058441E0,-2.093719877E-2,-9.613164902E0,9.487541914E-1,9.659891941E0
3.720531982E0,-4.007977992E-2,-9.613164902E0,9.583254457E-1,9.660897136E0
3.723005472E0,-5.443671346E-2,-9.608379364E0,9.583254457E-1,9.656205519E0
3.725478962E0,-3.529413417E-2,-9.589237213E0,9.678967595E-1,9.638025739E0
3.727952451E0,-2.572284266E-2,-9.570094109E0,9.200403094E-1,9.614251769E0
3.730425993E0,-4.007977992E-2,-9.589237213E0,9.343972206E-1,9.634737925E0
3.732899482E0,2.991028363E-3,-9.570094109E0,9.248259664E-1,9.614676971E0
3.735372972E0,-1.615155302E-2,-9.546165466E0,9.487541914E-1,9.593209604E0
3.737846462E0,-6.580262445E-3,-9.584450722E0,9.343972206E-1,9.629892892E0
3.740320003E0,4.606183618E-2,-9.565308571E0,9.104689956E-1,9.608652535E0
3.742793493E0,3.649054468E-2,-9.589237213E0,8.961120844E-1,9.631086063E0
3.745266982E0,9.870393574E-2,-9.594022751E0,9.152546525E-1,9.638086225E0
3.747740420E0,6.520441920E-2,-9.641879082E0,9.296116233E-1,9.686808639E0
3.750213962E0,1.256231871E-2,-9.608379364E0,9.631111026E-1,9.656536378E0
3.752687451E0,2.691925503E-2,-9.632308006E0,9.487541914E-1,9.678957418E0
3.755160941E0,4.127619043E-2,-9.632308006E0,9.248259664E-1,9.676691807E0
3.757634430E0,4.606183618E-2,-9.627521515E0,9.487541914E-1,9.674266211E0
3.760107972E0,5.084748194E-2,-9.646664619E0,9.726824164E-1,9.695712188E0
3.762581462E0,4.606183618E-2,-9.680164337E0,9.583254457E-1,9.727594304E0
3.765054951E0,3.649054468E-2,-9.675378799E0,9.870393276E-1,9.725663633E0
3.767528441E0,2.691925503E-2,-9.699306488E0,9.870393276E-1,9.749436785E0
3.770001982E0,-6.580262445E-3,-9.713663101E0,1.001396298E0,9.765146629E0
3.772475472E0,-1.615155302E-2,-9.699306488E0,1.044467092E0,9.755394340E0
3.774948962E0,-1.794616925E-3,-9.732806206E0,1.015753269E0,9.785666792E0
3.777422451E0,-2.572284266E-2,-9.742377281E0,1.010967612E0,9.794724716E0
3.779895993E0,-1.136590727E-2,-9.751948357E0,1.030110121E0,9.806209910E0
3.782369482E0,-4.486542568E-2,-9.790233612E0,1.063609719E0,9.847941547E0
3.784842972E0,-6.400800496E-2,-9.747162819E0,1.058824062E0,9.804712563E0
3.787316462E0,-5.922235921E-2,-9.761520386E0,1.049252748E0,9.817928440E0
3.789790003E0,-6.879365444E-2,-9.747162819E0,1.082752228E0,9.807357849E0
3.792263493E0,-7.836493850E-2,-9.747162819E0,1.149751306E0,9.815052325E0
3.794736982E0,-8.793623000E-2,-9.723235130E0,1.135394335E0,9.789696342E0
3.797210472E0,-1.118644550E-1,-9.694520950E0,1.149751306E0,9.763102897E0
3.799684014E0,-1.357926875E-1,-9.684949875E0,1.178465128E0,9.757329235E0
3.802157503E0,-1.645065546E-1,-9.665806770E0,1.130608678E0,9.733096060E0
3.804630993E0,-1.597209126E-1,-9.637093544E0,1.159322619E0,9.707889147E0
3.807104430E0,-1.932204217E-1,-9.699306488E0,1.140179992E0,9.768003424E0
3.809577972E0,-1.980060786E-1,-9.704092026E0,1.121037364E0,9.770636275E0
3.812051462E0,-1.836491376E-1,-9.646664619E0,1.140179992E0,9.715548142E0
3.814524951E0,-1.932204217E-1,-9.632308006E0,1.121037364E0,9.699248240E0
3.816998441E0,-2.027917206E-1,-9.704092026E0,1.087537885E0,9.766947588E0
3.819471982E0,-2.410768867E-1,-9.675378799E0,1.077966571E0,9.738228017E0
3.821945472E0,-2.458625287E-1,-9.646664619E0,1.044467092E0,9.706157745E0
3.824418962E0,-2.315055877E-1,-9.670592308E0,1.068395257E0,9.732184691E0
3.826892451E0,-2.267199457E-1,-9.670592308E0,1.034895778E0,9.728451408E0
3.829365993E0,-1.788634956E-1,-9.694520950E0,1.020538807E0,9.749729640E0
3.831839482E0,-1.932204217E-1,-9.689735413E0,1.001396298E0,9.743259262E0
3.834312972E0,-1.645065546E-1,-9.661021233E0,1.020538807E0,9.716166586E0
3.836786462E0,-1.453639716E-1,-9.646664619E0,9.966106415E-1,9.699097986E0
3.839260003E0,-1.453639716E-1,-9.665806770E0,9.774680734E-1,9.716192415E0
3.841733493E0,-1.357926875E-1,-9.656235695E0,9.822536707E-1,9.707015490E0
3.844206982E0,-9.750752151E-2,-9.665806770E0,1.015753269E0,9.719520716E0
3.846680420E0,-7.836493850E-2,-9.641879082E0,9.966106415E-1,9.693565188E0
3.849153962E0,-1.022931710E-1,-9.646664619E0,9.822536707E-1,9.697083296E0
3.851627451E0,-7.357929647E-2,-9.622735977E0,1.006181955E0,9.675477442E0
3.854100941E0,-5.443671346E-2,-9.594022751E0,1.006181955E0,9.646794184E0
3.856574430E0,-5.922235921E-2,-9.613164902E0,9.822536707E-1,9.663398418E0
3.859047972E0,-2.572284266E-2,-9.627521515E0,9.966106415E-1,9.679001237E0
3.861521462E0,-2.093719877E-2,-9.651450157E0,1.039681435E0,9.707309925E0
3.863994951E0,2.213360928E-2,-9.680164337E0,1.010967612E0,9.732837562E0
3.866468441E0,7.776673418E-3,-9.617950439E0,9.918249846E-1,9.668957955E0
3.868941982E0,1.256231871E-2,-9.689735413E0,1.025324464E0,9.743840128E0
3.871415472E0,-1.794616925E-3,-9.704092026E0,1.034895778E0,9.759119557E0
3.873888962E0,-4.486542568E-2,-9.641879082E0,1.001396298E0,9.693845454E0
3.876362451E0,-3.050848842E-2,-9.694520950E0,9.966106415E-1,9.745660573E0
3.878835993E0,-2.572284266E-2,-9.742377281E0,1.073180914E0,9.801341440E0
3.881309482E0,-4.007977992E-2,-9.680164337E0,1.054038405E0,9.737462962E0
3.883782972E0,-1.136590727E-2,-9.680164337E0,1.020538807E0,9.733817865E0
3.886256409E0,-2.572284266E-2,-9.689735413E0,1.039681435E0,9.745387192E0
3.888729951E0,-3.050848842E-2,-9.732806206E0,1.058824062E0,9.790278638E0
3.891203441E0,-5.443671346E-2,-9.728020668E0,9.774680734E-1,9.777156709E0
3.893676930E0,-2.572284266E-2,-9.742377281E0,1.010967612E0,9.794724716E0
3.896150420E0,-2.572284266E-2,-9.713663101E0,9.870393276E-1,9.763716462E0
3.898623962E0,-5.443671346E-2,-9.771091461E0,9.918249846E-1,9.821451446E0
3.901097451E0,-5.443671346E-2,-9.761520386E0,9.918249846E-1,9.811929494E0
3.903570941E0,-4.486542568E-2,-9.795019150E0,9.774680734E-1,9.843772493E0
3.906044430E0,-5.922235921E-2,-9.761520386E0,9.918249846E-1,9.811957212E0
3.908517972E0,-3.529413417E-2,-9.780662537E0,9.774680734E-1,9.829448060E0
3.910991462E0,-1.136590727E-2,-9.756733894E0,9.631111026E-1,9.804160773E0
3.913464951E0,-3.529413417E-2,-9.708877563E0,9.774680734E-1,9.758021985E0
3.915938441E0,-5.443671346E-2,-9.728020668E0,9.966106415E-1,9.779089029E0
3.918411982E0,-3.529413417E-2,-9.723235130E0,9.583254457E-1,9.770411186E0
3.920885472E0,-3.050848842E-2,-9.699306488E0,9.918249846E-1,9.749933021E0
3.923358962E0,-6.400800496E-2,-9.675378799E0,9.822536707E-1,9.725321291E0
3.925832451E0,-4.965107143E-2,-9.632308006E0,9.870393276E-1,9.682875058E0
3.928305993E0,-1.136590727E-2,-9.646664619E0,9.966106415E-1,9.698015273E0
3.930779482E0,-3.050848842E-2,-9.598808289E0,9.678967595E-1,9.647532092E0
3.933252972E0,-3.050848842E-2,-9.608379364E0,9.918249846E-1,9.659482469E0
3.935726462E0,-2.572284266E-2,-9.608379364E0,9.631111026E-1,9.656562466E0
3.938200003E0,-2.093719877E-2,-9.584450722E0,9.822536707E-1,9.634674685E0
3.940673493E0,2.991028363E-3,-9.594022751E0,9.726824164E-1,9.643204476E0
3.943146982E0,-2.093719877E-2,-9.613164902E0,9.726824164E-1,9.662271414E0
3.945620420E0,-2.093719877E-2,-9.594022751E0,9.391828775E-1,9.639905362E0
3.948093962E0,-1.615155302E-2,-9.570094109E0,9.104689956E-1,9.613319713E0
3.950567451E0,-6.580262445E-3,-9.560523033E0,9.487541914E-1,9.607485544E0
3.953040941E0,1.256231871E-2,-9.608379364E0,9.200403094E-1,9.652335779E0
3.955514430E0,-1.136590727E-2,-9.608379364E0,9.535398483E-1,9.655584986E0
3.957987972E0,-1.615155302E-2,-9.594022751E0,9.343972206E-1,9.639431082E0
3.960461462E0,-6.580262445E-3,-9.608379364E0,9.343972206E-1,9.653708897E0
3.962934951E0,-1.794616925E-3,-9.617950439E0,9.631111026E-1,9.666051773E0
3.965408441E0,-1.794616925E-3,-9.646664619E0,9.535398483E-1,9.693677308E0
3.967881982E0,-6.580262445E-3,-9.661021233E0,9.487541914E-1,9.707497570E0
3.970355472E0,2.991028363E-3,-9.661021233E0,9.056833982E-1,9.703380989E0
3.972828962E0,-1.794616925E-3,-9.665806770E0,9.104689956E-1,9.708592974E0
3.975302451E0,-2.093719877E-2,-9.665806770E0,9.248259664E-1,9.709972294E0
3.977775993E0,2.991028363E-3,-9.689735413E0,9.008977413E-1,9.731525988E0
3.980249482E0,-2.572284266E-2,-9.689735413E0,8.769695163E-1,9.729373544E0
3.982722972E0,-2.572284266E-2,-9.704092026E0,8.673982024E-1,9.742814960E0
3.985196409E0,2.991028363E-3,-9.665806770E0,8.961120844E-1,9.707257405E0
3.987669951E0,-2.572284266E-2,-9.718449593E0,8.865407705E-1,9.758835929E0
3.990143441E0,-2.572284266E-2,-9.708877563E0,9.583254457E-1,9.756093115E0
3.992616930E0,-1.136590727E-2,-9.680164337E0,9.056833982E-1,9.722446873E0
3.995090420E0,-4.486542568E-2,-9.713663101E0,9.200403094E-1,9.757240282E0
3.997563962E0,-4.965107143E-2,-9.713663101E0,9.583254457E-1,9.760947891E0
4.000037451E0,-4.007977992E-2,-9.680164337E0,9.678967595E-1,9.728515412E0
4.002510941E0,-2.093719877E-2,-9.694520950E0,9.774680734E-1,9.743696355E0
4.004984430E0,-5.922235921E-2,-9.699306488E0,1.006181955E0,9.751536072E0
4.007457972E0,-6.400800496E-2,-9.694520950E0,1.015753269E0,9.747799146E0
4.009931462E0,-6.400800496E-2,-9.737591743E0,1.020538807E0,9.791133205E0
4.012404951E0,-6.879365444E-2,-9.728020668E0,1.010967612E0,9.780653056E0
4.014878441E0,-7.357929647E-2,-9.732806206E0,1.020538807E0,9.786441131E0
4.017351982E0,-8.793623000E-2,-9.756733894E0,1.025324464E0,9.810855178E0
4.019825472E0,-1.022931710E-1,-9.761520386E0,1.034895778E0,9.816758803E0
4.022298962E0,-9.272187948E-2,-9.771091461E0,1.015753269E0,9.824183447E0
4.024772399E0,-9.272187948E-2,-9.804591179E0,1.044467092E0,9.860502880E0
4.027245941E0,-1.166501045E-1,-9.799804688E0,9.918249846E-1,9.850558155E0
4.029719430E0,-1.262213886E-1,-9.732806206E0,9.870393276E-1,9.783542053E0
4.032192920E0,-1.070788130E-1,-9.747162819E0,9.774680734E-1,9.796636807E0
4.034666409E0,-1.310070455E-1,-9.742377281E0,9.678967595E-1,9.791215556E0
4.037139951E0,-1.310070455E-1,-9.737591743E0,1.015753269E0,9.791302800E0
4.039613441E0,-1.310070455E-1,-9.713663101E0,9.487541914E-1,9.760765759E0
4.042086930E0,-1.740778536E-1,-9.694520950E0,9.583254457E-1,9.743327317E0
4.044560420E0,-1.453639716E-1,-9.684949875E0,9.152546525E-1,9.729186803E0
4.047033962E0,-1.549352705E-1,-9.713663101E0,8.865407705E-1,9.755265774E0
4.049507451E0,-1.357926875E-1,-9.699306488E0,9.008977413E-1,9.742001988E0
4.051980941E0,-1.214357466E-1,-9.684949875E0,8.338986635E-1,9.721542455E0
4.054454430E0,-8.793623000E-2,-9.684949875E0,8.195417523E-1,9.719960676E0
4.056927972E0,-8.793623000E-2,-9.680164337E0,8.578268886E-1,9.718496867E0
4.059401462E0,-1.166501045E-1,-9.675378799E0,8.099704385E-1,9.709923495E0
4.061874951E0,-9.272187948E-2,-9.608379364E0,8.003991842E-1,9.642105071E0
4.064348441E0,-7.357929647E-2,-9.646664619E0,8.195417523E-1,9.681694112E0
4.066821982E0,-7.357929647E-2,-9.617950439E0,7.956135273E-1,9.651082087E0
4.069295472E0,-5.443671346E-2,-9.589237213E0,7.716853023E-1,9.620391462E0
4.071768962E0,-2.572284266E-2,-9.598808289E0,7.621139884E-1,9.629049795E0
4.074242451E0,2.991028363E-3,-9.608379364E0,7.525427341E-1,9.637804912E0
4.076715993E0,7.776673418E-3,-9.617950439E0,7.477570772E-1,9.646977339E0
4.079189482E0,4.606183618E-2,-9.646664619E0,7.621139884E-1,9.676832008E0
4.081662972E0,2.213360928E-2,-9.603593826E0,8.195417523E-1,9.638524418E0
4.084136409E0,6.999006122E-2,-9.622735977E0,7.956135273E-1,9.655824521E0
4.086609951E0,6.520441920E-2,-9.651450157E0,7.764709592E-1,9.682853345E0
4.089083441E0,6.999006122E-2,-9.656235695E0,7.812566161E-1,9.688041510E0
4.091556930E0,1.178465188E-1,-9.641879082E0,7.956135273E-1,9.675366707E0
4.094030420E0,9.870393574E-2,-9.694520950E0,8.243274093E-1,9.730004861E0
4.096503962E0,1.178465188E-1,-9.694520950E0,8.243274093E-1,9.730217877E0
4.098977451E0,9.870393574E-2,-9.665806770E0,8.482556343E-1,9.703458178E0
4.101450941E0,5.563312769E-2,-9.675378799E0,8.626125455E-1,9.713915295E0
4.103924430E0,4.606183618E-2,-9.684949875E0,8.482556343E-1,9.722135228E0
4.106397972E0,4.127619043E-2,-9.737591743E0,8.961120844E-1,9.778824753E0
