"Time (s)","Acceleration x (m/s^2)","Acceleration y (m/s^2)","Acceleration z (m/s^2)","Absolute acceleration (m/s^2)"
3.939417300E-2,-1.442872047E0,7.759325504E0,5.971887112E0,9.897092891E0
4.187136000E-2,-1.399801254E0,7.740182877E0,5.986244202E0,9.884583661E0
4.434849600E-2,-1.328016520E0,7.711469173E0,5.967101574E0,9.840563291E0
4.682573500E-2,-1.337587833E0,7.682755470E0,5.957530022E0,9.813563919E0
4.930287100E-2,-1.289731383E0,7.677969456E0,6.024528980E0,9.844265917E0
5.178005800E-2,-1.304088354E0,7.677969456E0,6.029314995E0,9.849086288E0
5.423505800E-2,-1.284945726E0,7.673183918E0,6.024528980E0,9.839907845E0
5.669005800E-2,-1.280160069E0,7.625327587E0,6.053243160E0,9.819683466E0
5.914505800E-2,-1.232303619E0,7.620542049E0,6.067600250E0,9.818706948E0
6.160005800E-2,-1.246660590E0,7.630113125E0,6.081956863E0,9.836817992E0
6.405505800E-2,-1.213161111E0,7.639684677E0,6.086742401E0,9.843016555E0
6.651005800E-2,-1.194018483E0,7.615756035E0,6.120242119E0,9.842905248E0
6.896505800E-2,-1.184447169E0,7.654041290E0,6.177670002E0,9.907112083E0
7.142005800E-2,-1.189232826E0,7.634898663E0,6.187241077E0,9.898884000E0
7.396505800E-2,-1.184447169E0,7.644470215E0,6.192026615E0,9.908684755E0
7.649386000E-2,-1.184447169E0,7.668398380E0,6.206383705E0,9.936118332E0
7.897057900E-2,-1.189232826E0,7.687541008E0,6.211169243E0,9.954455526E0
8.144729800E-2,-1.150947690E0,7.644470215E0,6.211169243E0,9.916714618E0
8.392401700E-2,-1.131805062E0,7.649255753E0,6.201598167E0,9.912210455E0
8.640073500E-2,-1.098305583E0,7.567899704E0,6.206383705E0,9.848785701E0
8.887745400E-2,-1.127019525E0,7.572685242E0,6.153741837E0,9.822640855E0
9.135417300E-2,-1.083948612E0,7.567899704E0,6.120242119E0,9.793130966E0
9.380599600E-2,-1.150947690E0,7.601399422E0,6.163312912E0,9.853546560E0
9.628214200E-2,-1.184447169E0,7.601399422E0,6.139384747E0,9.842572496E0
9.875823500E-2,-1.170090318E0,7.610970497E0,6.134599209E0,9.845267427E0
1.012342770E-1,-1.179661512E0,7.639684677E0,6.187241077E0,9.901430977E0
1.037103710E-1,-1.213161111E0,7.634898663E0,6.187241077E0,9.901787193E0
1.061864650E-1,-1.208375454E0,7.620542049E0,6.220740795E0,9.911127504E0
1.086625580E-1,-1.208375454E0,7.639684677E0,6.282954216E0,9.964961961E0
1.111386520E-1,-1.222732425E0,7.663612843E0,6.316453457E0,1.000617912E1
1.135947980E-1,-1.299302697E0,7.663612843E0,6.292525291E0,1.000075116E1
1.160703710E-1,-1.313659668E0,7.701898098E0,6.345167637E0,1.006509257E1
1.185459960E-1,-1.347159147E0,7.711469173E0,6.349953175E0,1.007985614E1
1.210215690E-1,-1.347159147E0,7.654041290E0,6.340381622E0,1.002993644E1
1.234971420E-1,-1.337587833E0,7.682755470E0,6.340381622E0,1.005058764E1
1.259727670E-1,-1.371087432E0,7.701898098E0,6.378666878E0,1.009388459E1
1.284483400E-1,-1.347159147E0,7.687541008E0,6.393023968E0,1.008879973E1
1.309239120E-1,-1.356730461E0,7.682755470E0,6.388238430E0,1.008340416E1
1.333835480E-1,-1.337587833E0,7.677969456E0,6.397809505E0,1.008326944E1
1.358587040E-1,-1.366301775E0,7.658827305E0,6.388238430E0,1.006647935E1
1.383339120E-1,-1.361516118E0,7.677969456E0,6.373881340E0,1.007131096E1
1.408090690E-1,-1.404586911E0,7.654041290E0,6.373881340E0,1.005900471E1
1.432842770E-1,-1.399801254E0,7.663612843E0,6.378666878E0,1.006865415E1
1.457594850E-1,-1.366301775E0,7.639684677E0,6.359524250E0,1.003369878E1
1.482346420E-1,-1.313659668E0,7.630113125E0,6.364310265E0,1.002241354E1
1.507098500E-1,-1.332802176E0,7.591827869E0,6.359524250E0,9.992785434E0
1.531722460E-1,-1.294517040E0,7.630113125E0,6.311667919E0,9.986568609E0
1.556471420E-1,-1.270588875E0,7.644470215E0,6.335596085E0,1.000960033E1
1.581219850E-1,-1.251446247E0,7.634898663E0,6.321238995E0,9.990788644E0
1.605968810E-1,-1.237089276E0,7.601399422E0,6.287739754E0,9.942199669E0
1.630717250E-1,-1.256231904E0,7.601399422E0,6.282954216E0,9.941574596E0
1.655465690E-1,-1.198804140E0,7.606184959E0,6.244668961E0,9.913983631E0
1.680214120E-1,-1.174875975E0,7.563114166E0,6.273382664E0,9.896280084E0
1.704963080E-1,-1.203589797E0,7.553543091E0,6.335596085E0,9.931989699E0
1.729609960E-1,-1.174875975E0,7.548757076E0,6.330810547E0,9.921856133E0
1.754356310E-1,-1.184447169E0,7.534400463E0,6.330810547E0,9.912076857E0
1.779102150E-1,-1.179661512E0,7.558328629E0,6.292525291E0,9.905342371E0
1.803848500E-1,-1.189232826E0,7.510472298E0,6.326025009E0,9.891413512E0
1.828594330E-1,-1.213161111E0,7.529614449E0,6.302096844E0,9.893597842E0
1.853340170E-1,-1.170090318E0,7.548757076E0,6.335596085E0,9.924344940E0
1.878086520E-1,-1.179661512E0,7.582256794E0,6.282954216E0,9.917546726E0
1.902832350E-1,-1.208375454E0,7.587042332E0,6.302096844E0,9.936790589E0
1.927496940E-1,-1.194018483E0,7.572685242E0,6.302096844E0,9.924095250E0
1.952240690E-1,-1.194018483E0,7.582256794E0,6.287739754E0,9.922296581E0
1.976984960E-1,-1.213161111E0,7.582256794E0,6.263811588E0,9.909475949E0
2.001728710E-1,-1.246660590E0,7.634898663E0,6.292525291E0,9.972046668E0
2.026473500E-1,-1.198804140E0,7.606184959E0,6.249454498E0,9.916998665E0
2.051217250E-1,-1.213161111E0,7.601399422E0,6.249454498E0,9.915075117E0
2.075961000E-1,-1.174875975E0,7.630113125E0,6.244668961E0,9.929493959E0
2.100705270E-1,-1.189232826E0,7.625327587E0,6.220740795E0,9.912492702E0
2.125383920E-1,-1.194018483E0,7.634898663E0,6.230311871E0,9.926436608E0
2.150126100E-1,-1.189232826E0,7.601399422E0,6.263811588E0,9.921233970E0
2.174868290E-1,-1.217946768E0,7.615756035E0,6.220740795E0,9.908620002E0
2.199611000E-1,-1.179661512E0,7.644470215E0,6.206383705E0,9.917092560E0
2.224353710E-1,-1.127019525E0,7.663612843E0,6.225526333E0,9.937721717E0
2.249095900E-1,-1.170090318E0,7.658827305E0,6.249454498E0,9.954015700E0
2.273838080E-1,-1.150947690E0,7.615756035E0,6.282954216E0,9.939815604E0
2.298580790E-1,-1.203589797E0,7.625327587E0,6.292525291E0,9.959423867E0
2.323271420E-1,-1.232303619E0,7.668398380E0,6.263811588E0,9.977887629E0
2.348012040E-1,-1.174875975E0,7.682755470E0,6.249454498E0,9.973000887E0
2.372753190E-1,-1.170090318E0,7.654041290E0,6.249454498E0,9.950333711E0
2.397494330E-1,-1.170090318E0,7.668398380E0,6.225526333E0,9.946387444E0
2.422235480E-1,-1.141376376E0,7.654041290E0,6.187241077E0,9.908029080E0
2.446976620E-1,-1.174875975E0,7.630113125E0,6.206383705E0,9.905461047E0
2.471717770E-1,-1.179661512E0,7.639684677E0,6.215955257E0,9.919399327E0
2.496458920E-1,-1.141376376E0,7.601399422E0,6.196812630E0,9.873423923E0
2.521157870E-1,-1.141376376E0,7.615756035E0,6.196812630E0,9.884481108E0
2.545897980E-1,-1.122233868E0,7.620542049E0,6.211169243E0,9.894983241E0
2.570638080E-1,-1.069591761E0,7.620542049E0,6.230311871E0,9.901185468E0
2.595378190E-1,-1.098305583E0,7.596613884E0,6.263811588E0,9.907075919E0
2.620117770E-1,-1.107876897E0,7.606184959E0,6.254240036E0,9.909437889E0
2.644857870E-1,-1.136590719E0,7.582256794E0,6.235097408E0,9.882251578E0
2.669597980E-1,-1.117448211E0,7.615756035E0,6.230311871E0,9.902788319E0
2.694338080E-1,-1.064806104E0,7.596613884E0,6.235097408E0,9.885281697E0
2.719044850E-1,-1.088734269E0,7.630113125E0,6.239883423E0,9.916658396E0
2.743783400E-1,-1.098305583E0,7.610970497E0,6.254240036E0,9.912046483E0
2.768522980E-1,-1.088734269E0,7.610970497E0,6.244668961E0,9.904953541E0
2.793262040E-1,-1.117448211E0,7.567899704E0,6.268597126E0,9.890253099E0
2.818001100E-1,-1.083948612E0,7.591827869E0,6.311667919E0,9.932167282E0
2.842740170E-1,-1.088734269E0,7.610970497E0,6.349953175E0,9.971665836E0
2.867479750E-1,-1.107876897E0,7.601399422E0,6.292525291E0,9.929981819E0
2.892218810E-1,-1.146162033E0,7.610970497E0,6.249454498E0,9.914446068E0
2.916931310E-1,-1.160519004E0,7.634898663E0,6.263811588E0,9.943531443E0
2.941670370E-1,-1.155733347E0,7.644470215E0,6.215955257E0,9.920269361E0
2.966408920E-1,-1.165304661E0,7.639684677E0,6.230311871E0,9.926706550E0
2.991147460E-1,-1.160519004E0,7.658827305E0,6.177670002E0,9.907978941E0
3.015885480E-1,-1.174875975E0,7.644470215E0,6.148955822E0,9.880683991E0
3.040624540E-1,-1.203589797E0,7.677969456E0,6.144170284E0,9.907102091E0
3.065363080E-1,-1.232303619E0,7.701898098E0,6.168098450E0,9.944005481E0
3.090101620E-1,-1.256231904E0,7.654041290E0,6.134599209E0,9.889174593E0
3.114818290E-1,-1.217946768E0,7.658827305E0,6.153741837E0,9.899978212E0
3.139556310E-1,-1.198804140E0,7.625327587E0,6.182455540E0,9.889666763E0
3.164294330E-1,-1.170090318E0,7.663612843E0,6.215955257E0,9.936708354E0
3.189032350E-1,-1.194018483E0,7.682755470E0,6.211169243E0,9.951333334E0
3.213770370E-1,-1.160519004E0,7.658827305E0,6.263811588E0,9.961916264E0
3.238508400E-1,-1.179661512E0,7.649255753E0,6.254240036E0,9.950790586E0
3.263246420E-1,-1.194018483E0,7.615756035E0,6.292525291E0,9.950944411E0
3.287983920E-1,-1.246660590E0,7.634898663E0,6.316453457E0,9.987162985E0
3.312704750E-1,-1.222732425E0,7.596613884E0,6.306882381E0,9.948888504E0
3.337442250E-1,-1.189232826E0,7.625327587E0,6.287739754E0,9.954675622E0
3.362179750E-1,-1.246660590E0,7.587042332E0,6.330810547E0,9.959745787E0
3.386917250E-1,-1.227517962E0,7.577471256E0,6.321238995E0,9.943989814E0
3.411655270E-1,-1.246660590E0,7.601399422E0,6.311667919E0,9.958543454E0
3.436392250E-1,-1.270588875E0,7.591827869E0,6.349953175E0,9.978584660E0
3.461130270E-1,-1.227517962E0,7.606184959E0,6.378666878E0,1.000241177E1
3.485867770E-1,-1.170090318E0,7.577471256E0,6.359524250E0,9.961462276E0
3.510591210E-1,-1.198804140E0,7.563114166E0,6.354738712E0,9.950906057E0
3.535328190E-1,-1.198804140E0,7.563114166E0,6.359524250E0,9.953962826E0
3.560065690E-1,-1.174875975E0,7.567899704E0,6.364310265E0,9.957805211E0
3.584802670E-1,-1.203589797E0,7.524828911E0,6.378666878E0,9.937759792E0
3.609540170E-1,-1.198804140E0,7.515257835E0,6.335596085E0,9.902323437E0
3.634277150E-1,-1.189232826E0,7.500900745E0,6.330810547E0,9.887211381E0
3.659014120E-1,-1.184447169E0,7.534400463E0,6.287739754E0,9.884623242E0
3.683751620E-1,-1.227517962E0,7.539186001E0,6.321238995E0,9.914846864E0
3.708478190E-1,-1.174875975E0,7.524828911E0,6.345167637E0,9.912847020E0
3.733215170E-1,-1.213161111E0,7.558328629E0,6.359524250E0,9.952067133E0
3.757952150E-1,-1.194018483E0,7.539186001E0,6.321238995E0,9.910755174E0
3.782689120E-1,-1.189232826E0,7.548757076E0,6.282954216E0,9.893104760E0
3.807426100E-1,-1.232303619E0,7.543971539E0,6.244668961E0,9.870459423E0
3.832162560E-1,-1.241874933E0,7.539186001E0,6.225526333E0,9.855899605E0
3.856900060E-1,-1.217946768E0,7.625327587E0,6.168098450E0,9.883038684E0
3.881637040E-1,-1.189232826E0,7.567899704E0,6.163312912E0,9.832283900E0
3.906364650E-1,-1.194018483E0,7.558328629E0,6.091528416E0,9.780630360E0
3.931101620E-1,-1.179661512E0,7.620542049E0,6.077171326E0,9.818160405E0
3.955838600E-1,-1.160519004E0,7.625327587E0,6.029314995E0,9.790049258E0
3.980575060E-1,-1.174875975E0,7.644470215E0,5.991029739E0,9.783184336E0
4.005311520E-1,-1.198804140E0,7.649255753E0,5.952744484E0,9.766443151E0
4.030048500E-1,-1.189232826E0,7.682755470E0,5.904888153E0,9.762515579E0
4.054785480E-1,-1.184447169E0,7.735397339E0,5.823532104E0,9.754630350E0
4.079521940E-1,-1.189232826E0,7.740182877E0,5.818746567E0,9.756152791E0
4.104251100E-1,-1.141376376E0,7.773682594E0,5.761318684E0,9.742980760E0
4.128987560E-1,-1.112662554E0,7.797610760E0,5.742176056E0,9.747478514E0
4.153724540E-1,-1.112662554E0,7.783253670E0,5.775675774E0,9.755792448E0
4.178461000E-1,-1.107876897E0,7.778468132E0,5.761318684E0,9.742933371E0
4.203197460E-1,-1.136590719E0,7.826324463E0,5.761318684E0,9.784476789E0
4.227934440E-1,-1.127019525E0,7.807182312E0,5.732604980E0,9.751155240E0
4.252670900E-1,-1.131805062E0,7.840681553E0,5.732604980E0,9.778549472E0
4.277407350E-1,-1.117448211E0,7.821538925E0,5.732604980E0,9.761553233E0
4.302138600E-1,-1.093519926E0,7.816753387E0,5.770890236E0,9.777555598E0
4.326875060E-1,-1.079162955E0,7.802396297E0,5.809175014E0,9.787159701E0
4.351611520E-1,-1.069591761E0,7.778468132E0,5.852245808E0,9.792720460E0
4.376347980E-1,-1.088734269E0,7.816753387E0,5.904888153E0,9.856707357E0
4.401084440E-1,-1.107876897E0,7.792825222E0,5.919245243E0,9.848501430E0
4.425820370E-1,-1.098305583E0,7.792825222E0,5.933601856E0,9.856065700E0
4.450556830E-1,-1.074377418E0,7.735397339E0,6.010172367E0,9.854584248E0
4.475293290E-1,-1.083948612E0,7.701898098E0,6.091528416E0,9.879316644E0
4.500025060E-1,-1.088734269E0,7.701898098E0,6.096313953E0,9.882794162E0
4.524761520E-1,-1.093519926E0,7.701898098E0,6.125027657E0,9.901059738E0
4.549497460E-1,-1.079162955E0,7.620542049E0,6.182455540E0,9.872183665E0
4.574233920E-1,-1.083948612E0,7.577471256E0,6.182455540E0,9.839500584E0
4.598970370E-1,-1.007378340E0,7.534400463E0,6.225526333E0,9.825435338E0
4.623706310E-1,-9.690931439E-1,7.443472862E0,6.886543751E0,1.018670283E1
4.648442770E-1,-1.098305583E0,7.438687325E0,6.690331936E0,1.006483411E1
4.673178710E-1,-1.261017561E0,7.448258877E0,6.306882381E0,9.840909051E0
4.697912040E-1,-1.328016520E0,7.448258877E0,6.292525291E0,9.840531628E0
4.722647980E-1,-1.256231904E0,7.448258877E0,6.244668961E0,9.800539236E0
4.747384440E-1,-1.146162033E0,7.395616531E0,6.292525291E0,9.777765891E0
4.772120370E-1,-1.146162033E0,7.405188084E0,6.254240036E0,9.760431158E0
4.796856830E-1,-1.241874933E0,7.438687325E0,6.335596085E0,9.849675132E0
4.821592770E-1,-1.280160069E0,7.543971539E0,6.316453457E0,9.922091546E0
4.846329230E-1,-1.241874933E0,7.572685242E0,6.388238430E0,9.984858805E0
4.871065690E-1,-1.232303619E0,7.572685242E0,6.498906136E0,1.005484535E1
4.895615690E-1,-1.217946768E0,7.496115208E0,6.464808464E0,9.973408946E0
4.920140690E-1,-1.203589797E0,7.496115208E0,6.483951092E0,9.984087007E0
4.944867250E-1,-1.241874933E0,7.467401028E0,6.518048763E0,9.989459001E0
4.969593290E-1,-1.241874933E0,7.481758118E0,6.508477688E0,9.993960161E0
4.994320370E-1,-1.294517040E0,7.438687325E0,6.537191391E0,9.987227581E0
5.019046420E-1,-1.261017561E0,7.433901787E0,6.585047722E0,1.001078991E1
5.043772980E-1,-1.256231904E0,7.419544697E0,6.585047722E0,9.999530769E0
5.068499540E-1,-1.179661512E0,7.386045456E0,6.604190350E0,9.978005759E0
5.093684440E-1,-1.141376376E0,7.395616531E0,6.580262184E0,9.964824852E0
5.118422460E-1,-1.117448211E0,7.390830994E0,6.599404812E0,9.971219442E0
5.143160480E-1,-1.088734269E0,7.362117290E0,6.565905571E0,9.924577033E0
5.167898500E-1,-1.088734269E0,7.357331276E0,6.503692150E0,9.879963431E0
5.192636520E-1,-1.088734269E0,7.376473904E0,6.474380016E0,9.874983856E0
5.217374540E-1,-1.026520967E0,7.381259441E0,6.402595043E0,9.824966134E0
5.242112560E-1,-1.069591761E0,7.453044415E0,6.349953175E0,9.849558513E0
5.266850580E-1,-1.045663476E0,7.476972580E0,6.292525291E0,9.828245297E0
5.291571420E-1,-1.016949654E0,7.486543655E0,6.235097408E0,9.795864545E0
5.316308920E-1,-1.021735311E0,7.558328629E0,6.211169243E0,9.836203438E0
5.341046420E-1,-1.002592683E0,7.615756035E0,6.182455540E0,9.860410162E0
5.365784440E-1,-1.050449133E0,7.620542049E0,6.158527374E0,9.854114061E0
5.390521940E-1,-1.026520967E0,7.654041290E0,6.067600250E0,9.821092921E0
5.415259440E-1,-9.690931439E-1,7.701898098E0,6.005386829E0,9.814430539E0
5.439996940E-1,-9.786644578E-1,7.740182877E0,5.962316036E0,9.819237628E0
5.464734440E-1,-9.690931439E-1,7.802396297E0,5.861817360E0,9.807009344E0
5.489457870E-1,-9.690931439E-1,7.835896015E0,5.823532104E0,9.810908931E0
5.514194850E-1,-9.882357717E-1,7.835896015E0,5.737390518E0,9.761942750E0
5.538932350E-1,-1.002592683E0,7.869395256E0,5.656034470E0,9.742858908E0
5.563669330E-1,-1.026520967E0,7.888537884E0,5.651248932E0,9.758042310E0
5.588406830E-1,-1.031306505E0,7.902894974E0,5.684748173E0,9.789571179E0
5.613143810E-1,-9.930213690E-1,7.878966808E0,5.699105263E0,9.774661641E0
5.637881310E-1,-1.012163997E0,7.874181271E0,5.723033428E0,9.786741963E0
5.662618290E-1,-1.074377418E0,7.898109436E0,5.761318684E0,9.834999363E0
5.687344850E-1,-1.107876897E0,7.907680511E0,5.737390518E0,9.832418433E0
5.712081830E-1,-1.141376376E0,7.931608677E0,5.761318684E0,9.869445233E0
5.736818810E-1,-1.165304661E0,7.922037601E0,5.818746567E0,9.898203186E0
5.761555790E-1,-1.174875975E0,7.878966808E0,5.828317642E0,9.870549025E0
5.786292770E-1,-1.184447169E0,7.907680511E0,5.852245808E0,9.908738929E0
5.811029750E-1,-1.198804140E0,7.898109436E0,5.924030781E0,9.945421294E0
5.835766730E-1,-1.217946768E0,7.835896015E0,5.943173409E0,9.909892575E0
5.860503710E-1,-1.227517962E0,7.840681553E0,5.837889194E0,9.852108293E0
5.885231310E-1,-1.299302697E0,7.907680511E0,5.813961029E0,9.900592983E0
5.909968290E-1,-1.337587833E0,7.878966808E0,5.904888153E0,9.936546849E0
5.934705270E-1,-1.371087432E0,7.859824181E0,5.962316036E0,9.960217338E0
5.959441730E-1,-1.438086390E0,7.874181271E0,6.029314995E0,1.002115076E1
5.984178190E-1,-1.447657704E0,7.850253105E0,6.034100533E0,1.000662560E1
6.008915690E-1,-1.447657704E0,7.859824181E0,6.038886070E0,1.001702021E1
6.033652150E-1,-1.495514154E0,7.840681553E0,6.101099491E0,1.004670418E1
6.058389120E-1,-1.414158225E0,7.826324463E0,6.144170284E0,1.004997645E1
6.083117770E-1,-1.428515077E0,7.778468132E0,6.177670002E0,1.003537884E1
6.107854750E-1,-1.442872047E0,7.778468132E0,6.215955257E0,1.006104100E1
6.132591210E-1,-1.471585870E0,7.802396297E0,6.268597126E0,1.011623759E1
6.157327670E-1,-1.481157184E0,7.735397339E0,6.268597126E0,1.006605725E1
6.182064120E-1,-1.428515077E0,7.682755470E0,6.297310829E0,1.003601069E1
6.206801100E-1,-1.256231904E0,7.601399422E0,6.460022926E0,1.005441634E1
6.231537560E-1,-9.834501147E-1,7.256234646E0,6.905686378E0,1.006521831E1
6.256274020E-1,-7.722834945E-1,6.763313293E0,7.288537979E0,9.973044388E0
6.281005270E-1,-9.690931439E-1,6.926024914E0,6.795616150E0,9.751377415E0
6.305741730E-1,-1.074377418E0,6.997809887E0,6.652047157E0,9.714595279E0
6.330478190E-1,-9.786644578E-1,6.969096184E0,6.561119556E0,9.621557856E0
6.355214650E-1,-9.499505758E-1,7.064808846E0,6.249454498E0,9.479958420E0
6.379951100E-1,-9.738788009E-1,7.155735970E0,6.014957905E0,9.398548600E0
6.404687040E-1,-9.690931439E-1,7.170093060E0,6.029314995E0,9.418174734E0
6.429423500E-1,-1.083948612E0,7.304689407E0,5.833103180E0,9.410553897E0
6.454159960E-1,-1.270588875E0,7.567899704E0,5.555535793E0,9.473725770E0
6.478891730E-1,-1.548156261E0,7.965108395E0,5.306084156E0,9.695064137E0
6.503628190E-1,-1.605584025E0,8.180462837E0,5.435296535E0,9.951900357E0
6.528364120E-1,-1.351944804E0,8.309675217E0,5.713462353E0,1.017458152E1
6.553100580E-1,-1.122233868E0,8.271389961E0,5.895316601E0,1.021910263E1
6.577837040E-1,-9.499505758E-1,8.204390526E0,5.976672649E0,1.019485390E1
6.602572980E-1,-9.738788009E-1,8.132605553E0,5.919245243E0,1.010570024E1
6.627309440E-1,-1.093519926E0,8.070392609E0,5.569892883E0,9.866647324E0
6.652045900E-1,-1.198804140E0,8.099106789E0,5.339583874E0,9.774651814E0
6.676778190E-1,-1.280160069E0,8.113463402E0,5.425725460E0,9.844063945E0
6.701514120E-1,-1.337587833E0,8.127820015E0,5.493322372E0,9.900868149E0
6.726250580E-1,-1.409372568E0,8.123034477E0,5.444868088E0,9.880111773E0
6.750986520E-1,-1.438086390E0,8.123034477E0,5.401797295E0,9.860587994E0
6.775722980E-1,-1.471585870E0,8.151748657E0,5.483751297E0,9.934188413E0
6.800458920E-1,-1.404586911E0,8.209176064E0,5.545964718E0,1.000605620E1
6.825195370E-1,-1.304088354E0,8.295317650E0,5.679962635E0,1.013779645E1
6.849931310E-1,-1.313659668E0,8.372486115E0,5.833103180E0,1.028830978E1
6.874664650E-1,-1.380658627E0,8.549555779E0,6.440880299E0,1.079287085E1
6.899400580E-1,-1.198804140E0,8.616554260E0,6.297310829E0,1.073956528E1
6.924137040E-1,-9.690931439E-1,8.606983185E0,6.105885029E0,1.059722289E1
6.948872980E-1,-9.834501147E-1,8.568697929E0,5.957530022E0,1.048245784E1
6.973608920E-1,-1.088734269E0,8.535198212E0,5.641677380E0,1.028899774E1
6.998345370E-1,-1.074377418E0,8.468199730E0,5.358726501E0,1.007872230E1
7.023081310E-1,-1.093519926E0,8.329415321E0,5.038087845E0,9.795778405E0
7.047817250E-1,-1.127019525E0,8.218747139E0,4.755734921E0,9.562164618E0
7.072551620E-1,-1.256231904E0,8.146963120E0,4.521238327E0,9.401740407E0
7.097287560E-1,-1.337587833E0,8.089534760E0,4.271786690E0,9.245424564E0
7.122023500E-1,-1.356730461E0,8.099106789E0,4.089931965E0,9.174082613E0
7.146759960E-1,-1.399801254E0,8.089534760E0,3.927220106E0,9.100718320E0
7.171495900E-1,-1.442872047E0,8.127820015E0,3.893720627E0,9.127124315E0
7.196231830E-1,-1.447657704E0,8.180462837E0,3.994219303E0,9.217888744E0
7.220967770E-1,-1.476371527E0,8.161319733E0,4.190430641E0,9.292282907E0
7.245704230E-1,-1.591227055E0,8.185248375E0,4.267001152E0,9.366834755E0
7.270438080E-1,-1.653440475E0,8.194819450E0,4.526023865E0,9.506514780E0
7.295174020E-1,-1.730010748E0,8.223533630E0,4.856233597E0,9.705794522E0
7.319909960E-1,-1.850250125E0,8.257032394E0,5.200799942E0,9.932287225E0
7.344645900E-1,-1.960319996E0,8.242675781E0,5.416153908E0,1.005580836E1
7.369382350E-1,-1.974676847E0,8.213961601E0,5.488536835E0,1.007435112E1
7.394118290E-1,-1.936391711E0,8.175676346E0,5.536393166E0,1.006195537E1
7.418854230E-1,-1.926820397E0,8.094321251E0,5.555535793E0,1.000473145E1
7.443590170E-1,-1.931606054E0,8.099106789E0,5.660820007E0,1.006834226E1
7.468324540E-1,-1.917249203E0,8.008178711E0,5.914459229E0,1.013842191E1
7.493060480E-1,-1.969891191E0,7.912466049E0,6.096313953E0,1.018099377E1
7.517796420E-1,-2.051247120E0,7.821538925E0,6.259026051E0,1.022543363E1
7.542532350E-1,-2.075175524E0,7.773682594E0,6.359524250E0,1.025573221E1
7.567268290E-1,-2.151745796E0,7.677969456E0,6.402595043E0,1.022616488E1
7.592004230E-1,-2.228316069E0,7.577471256E0,6.402595043E0,1.016743264E1
7.616740170E-1,-2.228316069E0,7.476972580E0,6.383452415E0,1.008062380E1
7.641476100E-1,-2.218744755E0,7.448258877E0,6.326025009E0,1.002087726E1
7.666211000E-1,-2.228316069E0,7.472187042E0,6.239883423E0,9.986747059E0
7.690946940E-1,-2.304886341E0,7.505686283E0,5.962316036E0,9.858855925E0
7.715682870E-1,-2.328814745E0,7.520043373E0,5.694319725E0,9.715951193E0
7.740418810E-1,-2.347957134E0,7.524828911E0,5.579464436E0,9.657451850E0
7.765154750E-1,-2.300100803E0,7.563114166E0,5.397011280E0,9.571775716E0
7.789890690E-1,-2.276172638E0,7.572685242E0,5.172086239E0,9.448650682E0
7.814626620E-1,-2.204387903E0,7.548757076E0,5.119443893E0,9.383590209E0
7.839362560E-1,-2.156531334E0,7.505686283E0,5.085944653E0,9.319484266E0
7.864097460E-1,-2.242672920E0,7.548757076E0,4.947160721E0,9.299877119E0
7.888833400E-1,-2.247458696E0,7.677969456E0,4.832305431E0,9.346307364E0
7.913569330E-1,-2.156531334E0,7.744968891E0,4.765306473E0,9.345764618E0
7.938305270E-1,-2.060818434E0,7.845467091E0,4.688735962E0,9.369235369E0
7.963041210E-1,-2.056032896E0,7.945965767E0,4.564309120E0,9.391408892E0
7.987777150E-1,-2.094317913E0,7.950751305E0,4.435096741E0,9.341878662E0
8.012513080E-1,-2.209173441E0,7.960322857E0,4.357928276E0,9.340167351E0
8.037249020E-1,-2.414956331E0,7.802396297E0,4.482953072E0,9.316988264E0
8.061984440E-1,-2.515454769E0,7.520043373E0,4.626522541E0,9.180592348E0
8.086720370E-1,-2.458027124E0,7.319046497E0,4.875376225E0,9.131244839E0
8.111456310E-1,-2.462812662E0,7.155735970E0,5.196014404E0,9.179791346E0
8.136192250E-1,-2.558525562E0,6.969096184E0,5.646463394E0,9.327213064E0
8.160928190E-1,-2.462812662E0,6.825526714E0,6.172883987E0,9.526686615E0
8.185664120E-1,-2.410170555E0,6.820741177E0,6.608976364E0,9.798469313E0
8.210399540E-1,-2.324028969E0,6.859025955E0,6.833901405E0,9.957387013E0
8.235135480E-1,-2.314457655E0,6.835097790E0,6.948757172E0,1.001800890E1
8.259870900E-1,-2.300100803E0,6.600601196E0,7.207181931E0,1.004001351E1
8.284606830E-1,-2.347957134E0,6.433103561E0,7.384250641E0,1.007099209E1
8.309342770E-1,-2.477169752E0,6.202794552E0,7.595417500E0,1.011441532E1
8.334078710E-1,-2.654238462E0,5.925227165E0,7.762914658E0,1.012008610E1
8.358814650E-1,-2.673381090E0,5.585446358E0,7.183253765E0,9.483844796E0
8.383550060E-1,-2.630310297E0,5.221737385E0,6.235097408E0,8.547602779E0
8.408286000E-1,-2.908475876E0,5.618945599E0,5.871388435E0,8.631626945E0
8.433021940E-1,-3.181257725E0,6.054439545E0,5.732604980E0,8.924090921E0
8.457757870E-1,-3.406183004E0,6.332605362E0,5.670391560E0,9.157363909E0
8.482493810E-1,-3.425325632E0,6.591030121E0,5.737390518E0,9.385743641E0
8.507229750E-1,-3.233899832E0,6.806384087E0,5.871388435E0,9.552914457E0
8.531965690E-1,-2.999403238E0,6.906882763E0,6.000600815E0,9.628533607E0
8.556701620E-1,-2.855235577E0,7.031309128E0,6.187241077E0,9.791508076E0
8.581437040E-1,-2.908475876E0,7.179664135E0,6.532405853E0,1.013307136E1
8.606172980E-1,-3.133401155E0,7.362117290E0,6.915257454E0,1.057543188E1
8.630908920E-1,-3.454039574E0,7.610970497E0,7.393822193E0,1.115911591E1
8.655644330E-1,-3.688536167E0,7.802396297E0,7.767700672E0,1.161119549E1
8.680380270E-1,-3.784249067E0,7.969893932E0,8.102695465E0,1.197887407E1
8.705116210E-1,-3.707678795E0,8.170890808E0,8.332406998E0,1.224497223E1
8.729851620E-1,-3.707678795E0,8.362915039E0,8.490332603E0,1.248082440E1
8.754587560E-1,-3.779463291E0,8.597412109E0,8.581858635E0,1.272195486E1
8.779323500E-1,-3.841676712E0,8.712266922E0,8.577073097E0,1.281515735E1
8.804059440E-1,-4.028914928E0,8.563912392E0,8.557332039E0,1.275933707E1
8.828795370E-1,-4.512265205E0,7.692326546E0,8.404191017E0,1.225409530E1
8.853531310E-1,-4.646263599E0,7.644470215E0,8.394619942E0,1.226765398E1
8.878267250E-1,-4.497908592E0,8.079963684E0,8.389834404E0,1.248624508E1
8.903003190E-1,-4.009772778E0,8.439485550E0,8.140980721E0,1.239268983E1
8.927738600E-1,-3.511467218E0,8.736195564E0,7.901698589E0,1.229180034E1
8.952474540E-1,-3.162115097E0,8.918049812E0,7.638488293E0,1.216047235E1
8.977210480E-1,-3.133401155E0,8.956335068E0,7.456035137E0,1.206758471E1
9.001946420E-1,-3.387040377E0,9.028120041E0,7.322037220E0,1.210748624E1
9.026682350E-1,-3.707678795E0,9.061619759E0,7.255038261E0,1.218586948E1
9.051417770E-1,-3.976273060E0,9.056833267E0,7.154539585E0,1.220755557E1
9.076153710E-1,-4.076771736E0,8.922835350E0,7.130611420E0,1.212776474E1
9.100889120E-1,-4.038486481E0,8.664410591E0,7.092326164E0,1.190304475E1
9.125625060E-1,-4.057629108E0,8.329415321E0,7.020541668E0,1.162460833E1
9.150361000E-1,-4.009772778E0,8.041678429E0,7.001399040E0,1.139150816E1
9.175096940E-1,-3.899104595E0,7.845467091E0,6.886543751E0,1.114355667E1
9.199832870E-1,-3.712464333E0,7.730611801E0,6.790830612E0,1.093892731E1
9.224568810E-1,-3.564109325E0,7.663612843E0,6.618547440E0,1.073494328E1
9.249304230E-1,-3.439682484E0,7.529614449E0,6.513263226E0,1.053323821E1
9.274040170E-1,-3.214757204E0,6.906882763E0,6.436094761E0,9.973114316E0
9.298776100E-1,-3.253042459E0,6.849454880E0,6.469594002E0,9.967595695E0
9.323511520E-1,-3.190829039E0,7.112665176E0,6.503692150E0,1.015231045E1
9.348247460E-1,-2.961117983E0,7.295117855E0,6.244668961E0,1.004902257E1
9.372983400E-1,-2.673381090E0,7.433901787E0,5.991029739E0,9.914751614E0
9.397719330E-1,-2.491526604E0,7.610970497E0,5.809175014E0,9.893487306E0
9.422455270E-1,-2.472383976E0,7.610970497E0,5.641677380E0,9.791224545E0
9.447191210E-1,-2.501097918E0,7.601399422E0,5.646463394E0,9.793840555E0
9.471927150E-1,-2.654238462E0,7.558328629E0,5.809175014E0,9.895444802E0
9.496662560E-1,-2.816950560E0,7.448258877E0,5.967101574E0,9.950782479E0
9.521398500E-1,-3.023331404E0,7.352545738E0,6.163312912E0,1.005916933E1
9.546134960E-1,-3.257827997E0,7.290332317E0,6.369095802E0,1.021409663E1
9.570870370E-1,-3.391826153E0,7.227520943E0,6.532405853E0,1.031570986E1
9.595606310E-1,-3.477967739E0,7.227520943E0,6.742974281E0,1.047859822E1
9.620342250E-1,-3.588037491E0,7.328617573E0,6.881757736E0,1.067432612E1
9.644892250E-1,-3.669393539E0,7.438687325E0,6.972685337E0,1.083590600E1
9.669442250E-1,-3.793820381E0,7.591827869E0,7.494320393E0,1.132226840E1
9.693992250E-1,-3.841676712E0,7.754539967E0,7.408178806E0,1.139177261E1
9.718542250E-1,-3.923630953E0,7.883752346E0,7.389036179E0,1.149548984E1
9.743176100E-1,-3.923630953E0,8.017750740E0,7.528418064E0,1.167716941E1
9.767892770E-1,-3.860819340E0,8.103892326E0,7.441678524E0,1.166008474E1
9.792609440E-1,-3.870390654E0,8.237890244E0,7.369893551E0,1.171145125E1
9.817326100E-1,-3.846462488E0,8.271389961E0,7.130611420E0,1.157828937E1
9.842776100E-1,-3.865604877E0,8.338987350E0,6.987041950E0,1.154557778E1
9.867703190E-1,-3.808177233E0,8.372486115E0,6.781259537E0,1.142743272E1
9.892442770E-1,-3.722035646E0,8.415556908E0,6.709474564E0,1.138824817E1
9.917182870E-1,-3.530609846E0,8.415556908E0,6.824330330E0,1.139553809E1
9.941922460E-1,-3.310470104E0,8.472985268E0,7.063612461E0,1.151717468E1
9.966662560E-1,-3.075973511E0,8.501698494E0,7.322037220E0,1.163411876E1
9.991402150E-1,-2.865405083E0,8.520841599E0,7.441678524E0,1.167021281E1
1.001614225E0,-2.740380049E0,8.501698494E0,7.451249599E0,1.163226894E1
1.004085006E0,-2.687737942E0,8.410771370E0,7.149754047E0,1.136151369E1
1.006558860E0,-2.749951363E0,8.151748657E0,6.652047157E0,1.087487793E1
1.009032767E0,-2.802593470E0,7.936394691E0,6.115456581E0,1.040383103E1
1.011506673E0,-2.922832966E0,7.792825222E0,5.541179180E0,9.998787136E0
1.013980579E0,-2.961117983E0,7.711469173E0,5.272584915E0,9.799751436E0
1.016454485E0,-2.989831924E0,7.615756035E0,5.172086239E0,9.679323891E0
1.018928392E0,-2.927618504E0,7.539186001E0,5.148158073E0,9.587168884E0
1.021402298E0,-2.754737139E0,7.548757076E0,5.167300701E0,9.553706434E0
1.023873652E0,-2.615953445E0,7.505686283E0,5.172086239E0,9.483091008E0
1.026347558E0,-2.462812662E0,7.515257835E0,5.157729149E0,9.441753890E0
1.028821412E0,-2.347957134E0,7.558328629E0,5.172086239E0,9.454718950E0
1.031295215E0,-2.257030010E0,7.606184959E0,5.109872818E0,9.437109426E0
1.033769017E0,-2.257030010E0,7.697112083E0,4.951946259E0,9.426637292E0
1.036242923E0,-2.295315027E0,7.802396297E0,4.765306473E0,9.426240228E0
1.038716725E0,-2.362314224E0,7.907680511E0,4.645665169E0,9.470699257E0
1.041190579E0,-2.472383976E0,8.079963684E0,4.621737003E0,9.631144719E0
1.043662350E0,-2.501097918E0,8.228319168E0,4.631308079E0,9.767791032E0
1.046136152E0,-2.534597397E0,8.367700577E0,4.693521500E0,9.923292849E0
1.048609954E0,-2.577668190E0,8.506484032E0,4.746163845E0,1.007624509E1
1.051083704E0,-2.630310297E0,8.563912392E0,4.889732838E0,1.020630271E1
1.053557506E0,-2.706880569E0,8.688339233E0,4.894518852E0,1.033299356E1
1.056031308E0,-2.816950560E0,8.717052460E0,4.722235680E0,1.030639238E1
1.058505058E0,-2.975475073E0,8.697910309E0,4.468596458E0,1.022132330E1
1.060978860E0,-3.123830080E0,8.683553696E0,4.314857483E0,1.018726726E1
1.063451048E0,-3.324826956E0,8.717052460E0,4.195216179E0,1.022943384E1
1.065924798E0,-3.482753277E0,8.803194046E0,4.152145386E0,1.033760645E1
1.068398548E0,-3.640679598E0,8.851051331E0,4.286143780E0,1.048650018E1
1.070872298E0,-3.688536167E0,8.918049812E0,4.482953072E0,1.064113621E1
1.073346048E0,-3.640679598E0,8.841479301E0,4.506881237E0,1.057063303E1
1.075819798E0,-3.669393539E0,8.736195564E0,4.975874901E0,1.070256478E1
1.078293548E0,-3.635894060E0,8.587840080E0,5.047659397E0,1.060422502E1
1.080767298E0,-3.640679598E0,8.444271088E0,5.239085197E0,1.058339623E1
1.083239694E0,-3.592823267E0,8.348558426E0,5.440082073E0,1.059251150E1
1.085713392E0,-3.559323788E0,8.223533630E0,5.373083115E0,1.044822058E1
1.088187142E0,-3.425325632E0,8.127820015E0,5.320441246E0,1.030055382E1
1.090660840E0,-3.343969584E0,8.132605553E0,5.243870735E0,1.023814368E1
1.093134537E0,-3.238685369E0,8.209176064E0,5.090730190E0,1.018799237E1
1.095608287E0,-3.018545866E0,8.353343964E0,4.956732273E0,1.017148806E1
1.098081985E0,-3.013760090E0,8.458627701E0,4.817948341E0,1.019037579E1
1.100555683E0,-3.047259569E0,8.525627136E0,4.707878590E0,1.020471605E1
1.103028340E0,-3.061616659E0,8.697910309E0,4.583451748E0,1.029733802E1
1.105502037E0,-3.052045345E0,8.836693764E0,4.487739086E0,1.037024299E1
1.107975735E0,-2.989831924E0,8.874979019E0,4.381856441E0,1.033948806E1
1.110449381E0,-2.797807932E0,8.956335068E0,4.367499352E0,1.034981728E1
1.112923079E0,-2.639881611E0,8.946763992E0,4.348356724E0,1.029183011E1
1.115396777E0,-2.682952404E0,8.975478172E0,4.516452789E0,1.039979749E1
1.117870475E0,-2.754737139E0,8.994620323E0,4.688735962E0,1.051075717E1
1.120344173E0,-2.797807932E0,8.994620323E0,4.688735962E0,1.052212758E1
1.122817037E0,-2.874976397E0,8.994620323E0,4.683950424E0,1.054078155E1
1.125290735E0,-2.941975355E0,8.965906143E0,4.669593334E0,1.052842789E1
1.127764433E0,-2.975475073E0,8.927620888E0,4.856233597E0,1.058956427E1
1.130238079E0,-2.970689297E0,8.927620888E0,4.966303349E0,1.063915309E1
1.132711725E0,-2.989831924E0,8.937192917E0,5.014159679E0,1.067493838E1
1.135185371E0,-3.114258766E0,8.870193481E0,5.076373100E0,1.068403032E1
1.137659069E0,-3.142972469E0,8.807980537E0,5.215157032E0,1.070778502E1
1.140132715E0,-3.138186932E0,8.788837433E0,5.129015446E0,1.064888164E1
1.142587715E0,-3.162115097E0,8.822337151E0,4.975874901E0,1.061093472E1
1.145042715E0,-3.138186932E0,8.827122688E0,5.143372059E0,1.068740325E1
1.147497715E0,-3.142972469E0,8.807980537E0,5.181657314E0,1.069150923E1
1.149952715E0,-3.181257725E0,8.779266357E0,5.028516769E0,1.060574841E1
1.152415840E0,-3.133401155E0,8.760123253E0,5.301298618E0,1.070802172E1
1.154887558E0,-3.157329559E0,8.721838951E0,5.420939922E0,1.074363971E1
1.157359277E0,-3.171686411E0,8.707481384E0,5.277370453E0,1.066444868E1
1.159830996E0,-3.248256683E0,8.731410027E0,5.119443893E0,1.063002344E1
1.162375996E0,-3.224328518E0,8.721838951E0,5.330012321E0,1.071801290E1
1.164868287E0,-3.262613773E0,8.803194046E0,5.224728107E0,1.074423836E1
1.167342298E0,-3.300898790E0,8.927620888E0,4.971088886E0,1.073825276E1
1.169816360E0,-3.559323788E0,9.037691116E0,4.770092010E0,1.082138736E1
1.172290423E0,-3.803391695E0,9.195617676E0,4.454239368E0,1.090254196E1
1.174764433E0,-3.875176191E0,9.281759262E0,4.645665169E0,1.107927120E1
1.177238444E0,-4.000201225E0,9.397212982E0,4.492524624E0,1.115759827E1
1.179712506E0,-4.009772778E0,9.478569031E0,4.209573269E0,1.111944494E1
1.182182975E0,-4.052843571E0,9.559925079E0,4.085146427E0,1.115823148E1
1.184656881E0,-4.067200184E0,9.555138588E0,4.027718544E0,1.113846073E1
1.187130840E0,-4.014558315E0,9.617352486E0,3.884149313E0,1.112190466E1
1.189604746E0,-3.923630953E0,9.622138023E0,4.223930359E0,1.121704095E1
1.192078756E0,-4.038486481E0,9.617352486E0,4.252644062E0,1.126444954E1
1.194552662E0,-3.966701746E0,9.583852768E0,3.735794306E0,1.102456873E1
1.197026621E0,-3.894318819E0,9.602995872E0,3.439084291E0,1.091835837E1
1.199500579E0,-3.789034605E0,9.512067795E0,3.740580082E0,1.090083283E1
1.201971621E0,-3.846462488E0,9.540781975E0,3.831507206E0,1.097735131E1
1.204445527E0,-3.789034605E0,9.564710617E0,3.908077478E0,1.100515979E1
1.206919381E0,-3.803391695E0,9.722636223E0,4.051646709E0,1.119871799E1
1.209393235E0,-3.803391695E0,9.947562218E0,4.281357765E0,1.147823187E1
1.211867142E0,-3.812962770E0,1.007198906E1,4.492524624E0,1.166903707E1
1.214340996E0,-3.793820381E0,1.017727280E1,4.674378872E0,1.182454111E1
1.216814850E0,-3.755535126E0,1.020598698E1,4.817948341E0,1.189448782E1
1.219288756E0,-3.760320902E0,1.019641590E1,4.851448059E0,1.190140575E1
1.221760267E0,-3.769891977E0,1.008156013E1,4.846662045E0,1.180423963E1
1.224234121E0,-3.722035646E0,9.942776680E0,4.770092010E0,1.163899202E1
1.226707975E0,-3.664607763E0,9.870991707E0,4.703093052E0,1.153190841E1
1.229181777E0,-3.568894863E0,9.842277527E0,4.746163845E0,1.149493405E1
1.231655527E0,-3.372683525E0,9.722636223E0,4.985445976E0,1.143500419E1
1.234129381E0,-3.267399311E0,9.756135941E0,5.435296535E0,1.163617356E1
1.236603235E0,-3.138186932E0,9.751350403E0,5.780461311E0,1.176226104E1
1.239077037E0,-2.927618504E0,9.784850121E0,6.038886070E0,1.186517539E1
1.241548965E0,-2.778665304E0,9.866206169E0,6.019743443E0,1.188698095E1
1.244022715E0,-2.568096876E0,1.003370380E1,5.919245243E0,1.192928321E1
1.246496517E0,-2.309672117E0,1.013898754E1,5.833103180E0,1.192303428E1
1.248970267E0,-2.079961061E0,1.022034359E1,5.550750256E0,1.181492656E1
1.251444069E0,-1.701296926E0,1.038305569E1,5.181657314E0,1.172824919E1
1.253917819E0,-1.289731383E0,1.046979523E1,4.861019135E0,1.161505601E1
1.256391569E0,-8.350951076E-1,1.052243805E1,4.712664127E0,1.155977031E1
1.258865371E0,-4.516452849E-1,1.052243805E1,4.602594376E0,1.149389233E1
1.261337610E0,-9.750752151E-2,1.076171970E1,4.290929317E0,1.158603440E1
1.263811360E0,9.391828626E-2,1.101057339E1,4.032504559E0,1.172615197E1
1.266285058E0,2.955136001E-1,1.117807102E1,3.812364578E0,1.181400541E1
1.268758808E0,5.970092416E-1,1.125464153E1,3.649652719E0,1.184665949E1
1.271232558E0,9.511470199E-1,1.092921734E1,3.865006685E0,1.163145515E1
1.273706256E0,8.745766878E-1,1.100100231E1,3.434298754E0,1.155773958E1
1.276180006E0,1.180858016E0,1.101535892E1,3.060420275E0,1.149342117E1
1.278653704E0,1.918445587E0,1.029691410E1,3.716651678E0,1.111397198E1
1.281126308E0,1.932802439E0,1.049850941E1,3.702294827E0,1.129873497E1
1.283600006E0,1.774876237E0,1.111585712E1,3.208775282E0,1.170507172E1
1.286073704E0,1.688734531E0,1.117807102E1,3.093919754E0,1.172064143E1
1.288547402E0,1.439880967E0,1.097707367E1,3.213560820E0,1.152806908E1
1.291021100E0,1.094716311E0,1.065165043E1,3.270988464E0,1.119622375E1
1.293494798E0,6.975077987E-1,1.029691410E1,3.180061340E0,1.079934013E1
1.295968496E0,-1.740778536E-1,1.066122150E1,1.652842283E0,1.078998771E1
1.298442246E0,-4.755735099E-1,1.068036366E1,2.801995277E0,1.105203671E1
1.300914954E0,-5.282155871E-1,1.016770172E1,4.660022259E0,1.119718614E1
1.303388704E0,-6.526423693E-1,1.000020409E1,5.167300701E0,1.127523926E1
1.305862350E0,-7.722834945E-1,1.010070229E1,5.632106304E0,1.159056642E1
1.308336048E0,-7.824530005E-1,1.038305569E1,6.192026615E0,1.211450666E1
1.310809694E0,-7.627122402E-1,1.077129078E1,6.551548481E0,1.263032947E1
1.313283392E0,-1.002592683E0,1.104885864E1,6.752545357E0,1.298766100E1
1.315757037E0,-1.165304661E0,1.116849995E1,7.345965385E0,1.341851458E1
1.318230735E0,-1.117448211E0,1.097228813E1,7.872984886E0,1.355078184E1
1.320703600E0,-9.595218897E-1,1.080957603E1,9.223134995E0,1.424197442E1
1.323177298E0,-8.685946465E-1,1.081436157E1,9.975079536E0,1.473794710E1
1.325650944E0,-1.060020447E0,1.099621677E1,1.037707329E1,1.515665124E1
1.328124642E0,-1.265803218E0,1.135992527E1,1.094716358E1,1.582689326E1
1.330598235E0,-1.552941918E0,1.185823059E1,1.128694439E1,1.644458497E1
1.333071933E0,-1.878963947E0,1.236550903E1,1.134437180E1,1.688582514E1
1.335545579E0,-2.300100803E0,1.276810169E1,1.122473145E1,1.715545046E1
1.338019277E0,-2.682952404E0,1.315573883E1,1.117208862E1,1.746674732E1
1.340474277E0,-2.965903759E0,1.355354595E1,1.113380337E1,1.778923187E1
1.342929277E0,-3.286541939E0,1.395553970E1,1.100459099E1,1.807372317E1
1.345384277E0,-3.678964853E0,1.420917892E1,1.099501991E1,1.833919330E1
1.347839277E0,-3.966701746E0,1.438624763E1,1.095194912E1,1.851064648E1
1.350294277E0,-4.138985157E0,1.442931843E1,1.088016415E1,1.853953614E1
1.352749277E0,-4.344767570E0,1.445324707E1,1.071266651E1,1.850768975E1
1.355204277E0,-4.560121536E0,1.445324707E1,1.046800041E1,1.841928587E1
1.357659277E0,-4.780261517E0,1.453938866E1,1.028136063E1,1.843776285E1
1.360204277E0,-4.953142643E0,1.467398453E1,1.015693378E1,1.852087330E1
1.362749277E0,-5.182853699E0,1.487019634E1,9.932008743E0,1.861798887E1
1.365229694E0,-5.359922886E0,1.500897980E1,9.841081619E0,1.873086051E1
1.367704173E0,-5.594419479E0,1.514776421E1,9.586843491E0,1.877924008E1
1.370178600E0,-5.819344521E0,1.529133320E1,9.538987160E0,1.893889959E1
1.372653079E0,-6.001797199E0,1.527219009E1,9.572486877E0,1.899720677E1
1.375127558E0,-6.164509296E0,1.525783348E1,9.505488396E0,1.900413026E1
1.377601985E0,-6.303293228E0,1.506162167E1,9.673583984E0,1.897793929E1
1.380069485E0,-6.509075642E0,1.514776421E1,9.381061554E0,1.896911021E1
1.382543756E0,-6.930212498E0,1.571785355E1,8.778069496E0,1.929075606E1
1.385018027E0,-7.328019142E0,1.608634758E1,8.639286041E0,1.967505289E1
1.387492298E0,-7.686942577E0,1.625863075E1,8.586644173E0,1.992893922E1
1.389966621E0,-8.017151833E0,1.634955978E1,8.308478355E0,2.001533515E1
1.392440892E0,-8.376673698E0,1.648355675E1,8.117053032E0,2.019313882E1
1.394915162E0,-8.716454506E0,1.671386528E1,7.935198307E0,2.045231635E1
1.397389433E0,-9.109476089E0,1.698664856E1,7.657630444E0,2.074049392E1
1.399858183E0,-9.506684303E0,1.715893173E1,7.384250641E0,2.096027534E1
1.402332350E0,-9.856036186E0,1.689093590E1,7.547560692E0,2.096212864E1
1.404806517E0,-1.008574772E1,1.661755562E1,7.073183537E0,2.068563238E1
1.407280631E0,-1.081376362E1,1.742692757E1,5.699105263E0,2.128650015E1
1.409754746E0,-1.158006477E1,1.794916153E1,5.646463394E0,2.209418133E1
1.412228912E0,-1.198684502E1,1.779602051E1,5.732604980E0,2.220913234E1
1.414703079E0,-1.225065327E1,1.734078598E1,5.790032387E0,2.200694979E1
1.417177246E0,-1.262393379E1,1.722592926E1,5.420939922E0,2.203367724E1
1.419646881E0,-1.295892906E1,1.733600044E1,5.138586521E0,2.224580467E1
1.422120944E0,-1.324606800E1,1.733600044E1,5.014159679E0,2.238609001E1
1.424594954E0,-1.340459251E1,1.729771423E1,5.028516769E0,2.245395286E1
1.427069017E0,-1.347637749E1,1.728335762E1,5.085944653E0,2.249875627E1
1.429542975E0,-1.343330669E1,1.728335762E1,5.191228867E0,2.249704506E1
1.432017037E0,-1.341416359E1,1.737907028E1,5.406582832E0,2.260979891E1
1.434491100E0,-1.346201992E1,1.750828362E1,5.746961594E0,2.282090145E1
1.436965110E0,-1.354816151E1,1.769552231E1,6.067600250E0,2.309761812E1
1.439435579E0,-1.367258835E1,1.788694763E1,6.455237389E0,2.342120103E1
1.441909485E0,-1.390229988E1,1.814058685E1,6.891329288E0,2.387143173E1
1.444383444E0,-1.419422436E1,1.841336823E1,7.341179848E0,2.438075175E1
1.446857350E0,-1.444367599E1,1.869093513E1,7.786843300E0,2.487178645E1
1.449331308E0,-1.473560047E1,1.915095520E1,8.241478920E0,2.553074580E1
1.451805267E0,-1.503231049E1,1.952902222E1,8.691927910E0,2.613240666E1
1.454279173E0,-1.527159214E1,1.981675911E1,9.036494255E0,2.660044542E1
1.456753131E0,-1.549233055E1,1.996511459E1,9.261420250E0,2.691453161E1
1.459224173E0,-1.563111401E1,1.988375854E1,9.280562401E0,2.694112873E1
1.461698027E0,-1.566939926E1,1.956252098E1,9.213563919E0,2.670415811E1
1.464171933E0,-1.566939926E1,1.908874321E1,8.902496338E0,2.625194529E1
1.466645787E0,-1.557368660E1,1.853779602E1,8.514261246E0,2.566480548E1
1.469119694E0,-1.545883083E1,1.802094460E1,7.983054638E0,2.504913284E1
1.471593548E0,-1.524287891E1,1.744606972E1,7.398607731E0,2.431974717E1
1.474067402E0,-1.496531105E1,1.694836235E1,6.862615108E0,2.362843641E1
1.476541256E0,-1.460638809E1,1.640698624E1,6.282954216E0,2.284756626E1
1.479012871E0,-1.426600838E1,1.589970779E1,5.641677380E0,2.209407673E1
1.481486725E0,-1.385922909E1,1.540140247E1,4.961517811E0,2.130488414E1
1.483960527E0,-1.350030518E1,1.491805267E1,4.219144344E0,2.055742480E1
1.486434381E0,-1.311685562E1,1.451546001E1,3.486940861E0,1.987232340E1
1.488908131E0,-1.272921848E1,1.413739395E1,2.782852650E0,1.922610672E1
1.491381985E0,-1.228415298E1,1.379282761E1,2.193620205E0,1.859985155E1
1.493855787E0,-1.187677479E1,1.345723438E1,1.600200176E0,1.801986618E1
1.496329642E0,-1.156570816E1,1.317009544E1,1.073180914E0,1.756043099E1
1.498801569E0,-1.125464153E1,1.289252853E1,5.371887088E-1,1.712229014E1
1.501275319E0,-1.097169018E1,1.269153118E1,-2.333002165E-2,1.677657573E1
1.503749121E0,-1.077069283E1,1.255274773E1,-4.971089065E-1,1.654770125E1
1.506222871E0,-1.061276627E1,1.237508011E1,-8.949156404E-1,1.632710291E1
1.508696673E0,-1.050269699E1,1.222672558E1,-1.215553880E0,1.616406612E1
1.511170423E0,-1.043569756E1,1.204008579E1,-1.607976794E0,1.601415120E1
1.513644173E0,-1.041655540E1,1.172901821E1,-1.957927108E0,1.580847789E1
1.516117923E0,-1.040698433E1,1.138385391E1,-2.268994093E0,1.558992582E1
1.518590215E0,-1.035912704E1,1.099621677E1,-2.642274380E0,1.533655471E1
1.521063965E0,-1.025384331E1,1.055593681E1,-3.040081263E0,1.502701563E1
1.523537662E0,-1.022991467E1,1.008634567E1,-3.422932863E0,1.476827656E1
1.526011412E0,-1.018684387E1,9.593423843E0,-3.681357622E0,1.446920741E1
1.528485162E0,-1.009053326E1,9.119047165E0,-3.805784464E0,1.412302652E1
1.530958860E0,-1.000439167E1,8.760123253E0,-3.877569199E0,1.385146761E1
1.533432610E0,-9.966106415E0,8.525627136E0,-3.901497364E0,1.368324804E1
1.535906308E0,-9.899106979E0,8.444271088E0,-3.748356581E0,1.354061336E1
1.538378912E0,-9.894321442E0,8.506484032E0,-3.518645763E0,1.351438994E1
1.540852610E0,-9.908679008E0,8.736195564E0,-3.399004459E0,1.364024428E1
1.543326308E0,-9.951749802E0,8.922835350E0,-3.355933666E0,1.378102339E1
1.545800006E0,-9.966106415E0,9.066405296E0,-3.394218922E0,1.389401685E1
1.548273704E0,-9.985248566E0,9.157332420E0,-3.451646566E0,1.398126568E1
1.550747402E0,-9.980463028E0,9.219545364E0,-3.571287870E0,1.404862114E1
1.553221100E0,-1.001396275E1,9.152546883E0,-3.633501291E0,1.404460380E1
1.555694798E0,-9.889535904E0,9.104690552E0,-3.580859184E0,1.391117763E1
1.558167558E0,-9.755537987E0,8.874979019E0,-3.662214994E0,1.368749768E1
1.560641308E0,-9.645467758E0,8.530412674E0,-3.901497364E0,1.345454088E1
1.563114954E0,-9.473184586E0,8.137392044E0,-4.208376884E0,1.317834631E1
1.565588600E0,-9.248259544E0,7.721040249E0,-4.596014023E0,1.289449929E1
1.568062298E0,-8.989236832E0,7.241877556E0,-4.998606682E0,1.257923838E1
1.570535944E0,-8.659027100E0,6.748956203E0,-5.486742496E0,1.227320265E1
1.573009642E0,-8.309675217E0,6.265605927E0,-5.950950146E0,1.198842473E1
1.575483340E0,-7.969295979E0,5.867799282E0,-6.396613121E0,1.178377725E1
1.577956204E0,-7.548159122E0,5.403591633E0,-6.870391846E0,1.154884379E1
1.580429902E0,-7.069594383E0,4.919643402E0,-7.277770042E0,1.127599187E1
1.582903548E0,-6.619145870E0,4.493721008E0,-7.670193195E0,1.108325242E1
1.585377246E0,-6.217151642E0,3.981058598E0,-8.082356453E0,1.094651944E1
1.587850840E0,-5.876772404E0,3.468994617E0,-8.527421951E0,1.092187267E1
1.590324537E0,-5.556134224E0,3.042474031E0,-8.891130447E0,1.091693530E1
1.592798183E0,-5.259424210E0,2.616551638E0,-9.198010445E0,1.091381151E1
1.595271829E0,-4.991427898E0,2.319841623E0,-9.710074425E0,1.116161113E1
1.597744954E0,-4.909473896E0,1.941177368E0,-1.004028416E1,1.134365062E1
1.600218600E0,-4.808975220E0,1.534397483E0,-1.024666500E1,1.142255497E1
1.602692246E0,-4.598406792E0,1.194616675E0,-1.023709393E1,1.128585602E1
1.605165892E0,-4.368695736E0,9.738788009E-1,-1.040459061E1,1.132649319E1
1.607639537E0,-4.167698860E0,7.441678643E-1,-1.068694401E1,1.149496724E1
1.610113183E0,-4.033700943E0,4.091726840E-1,-1.094058323E1,1.166767016E1
1.612586829E0,-3.875176191E0,1.363908947E-1,-1.113679504E1,1.179253140E1
1.615060475E0,-3.731606960E0,-1.274178028E-1,-1.127617645E1,1.187826928E1
1.617533600E0,-3.607180119E0,-2.709871531E-1,-1.121396351E1,1.178296058E1
1.620007246E0,-3.511467218E0,-2.949153781E-1,-1.096451187E1,1.151685277E1
1.622480840E0,-3.382254839E0,-2.853440940E-1,-1.073958588E1,1.126320442E1
1.624954485E0,-3.363112211E0,-3.188436031E-1,-1.062951660E1,1.115342137E1
1.627428131E0,-3.348755360E0,-3.523431420E-1,-1.056251717E1,1.108625622E1
1.629901725E0,-3.296113253E0,-4.241278172E-1,-1.041894817E1,1.093612034E1
1.632375371E0,-3.219542980E0,-5.629115105E-1,-1.037587738E1,1.087847222E1
1.634848965E0,-3.085544825E0,-8.069794178E-1,-1.034237766E1,1.082296532E1
1.637322246E0,-2.865405083E0,-1.085145116E0,-1.028495026E1,1.073164889E1
1.639795840E0,-2.630310297E0,-1.424925923E0,-1.026102161E1,1.068819492E1
1.642269485E0,-2.271386862E0,-1.802991867E0,-1.024187946E1,1.064453253E1
1.644743131E0,-1.950748682E0,-2.181656122E0,-1.024187946E1,1.065181387E1
1.647216725E0,-1.682154298E0,-2.669791937E0,-1.025623608E1,1.073069478E1
1.649690319E0,-1.337587833E0,-3.153740168E0,-1.022273636E1,1.078144503E1
1.652163965E0,-1.103091240E0,-3.661018610E0,-1.019880867E1,1.089199549E1
1.654637558E0,-9.260223508E-1,-4.158725739E0,-1.011206818E1,1.097298683E1
1.657110892E0,-7.872386575E-1,-4.566103935E0,-1.002114105E1,1.104048540E1
1.659584485E0,-6.957131624E-1,-5.035097122E0,-9.853643417E0,1.108740314E1
1.662058131E0,-5.569294691E-1,-5.442475319E0,-9.676574707E0,1.111606073E1
1.664531725E0,-4.181457460E-1,-5.767899036E0,-9.413364410E0,1.104784751E1
1.667005319E0,-3.463610709E-1,-6.088537216E0,-9.274580956E0,1.109991456E1
1.669478965E0,-2.458625287E-1,-6.290132523E0,-9.116654396E0,1.107879068E1
1.671952558E0,-2.171486616E-1,-6.438487530E0,-8.958129883E0,1.103400953E1
1.674426152E0,-2.219343036E-1,-6.553342819E0,-8.852845192E0,1.101673386E1
1.676899590E0,-3.032902777E-1,-6.629913330E0,-8.699705124E0,1.094223949E1
1.679373183E0,-3.367897868E-1,-6.759125710E0,-8.560921669E0,1.091277176E1
1.681846777E0,-2.937189937E-1,-6.883552551E0,-8.388637543E0,1.085535842E1
1.684320423E0,-2.506481707E-1,-6.955337048E0,-8.278568268E0,1.081546257E1
1.686794017E0,-1.692921966E-1,-7.084549427E0,-8.197212219E0,1.083576433E1
1.689267610E0,-1.501496136E-1,-7.189833641E0,-8.206783295E0,1.091180758E1
1.691741204E0,-1.118644550E-1,-7.334001541E0,-8.163712502E0,1.097480269E1
1.694214850E0,-2.093719877E-2,-7.506284714E0,-8.115856171E0,1.105494776E1
1.696688235E0,6.520441920E-2,-7.654639721E0,-7.995616913E0,1.106922087E1
1.699161829E0,1.561316848E-1,-7.750352383E0,-7.861618996E0,1.104071521E1
1.701635423E0,2.422732860E-1,-7.855636597E0,-7.722835064E0,1.101870701E1
1.704109017E0,3.050848842E-1,-7.874779224E0,-7.454838753E0,1.084803417E1
1.706582662E0,4.725824594E-1,-7.869993687E0,-7.292127132E0,1.073942517E1
1.709056256E0,5.730810165E-1,-7.970492363E0,-7.119843960E0,1.070277293E1
1.711529850E0,6.783652306E-1,-8.204988480E0,-6.946962357E0,1.077229322E1
1.714003444E0,8.219345808E-1,-8.507082939E0,-6.846463680E0,1.095080369E1
1.716476881E0,9.559326172E-1,-8.803792953E0,-6.812964439E0,1.117305070E1
1.718950475E0,1.075573802E0,-9.181859016E0,-6.683752060E0,1.140771386E1
1.721424069E0,1.214357495E0,-9.584450722E0,-6.549753666E0,1.167200209E1
1.723897662E0,1.435095429E0,-9.996016502E0,-6.310471535E0,1.190806012E1
1.726371256E0,1.640878081E0,-1.035972595E1,-6.061617851E0,1.211443823E1
1.728844850E0,1.770090580E0,-1.069053364E1,-5.749952793E0,1.226713851E1
1.731318444E0,1.884945989E0,-1.094417286E1,-5.462814331E0,1.237619818E1
1.733792037E0,1.961516380E0,-1.122173977E1,-5.170889854E0,1.251051925E1
1.736265527E0,2.028515339E0,-1.132702446E1,-4.844867706E0,1.248555568E1
1.738739121E0,2.057229280E0,-1.140838051E1,-4.514657974E0,1.244047727E1
1.741212715E0,2.009372711E0,-1.144726372E1,-4.146163464E0,1.233969598E1
1.743686308E0,1.975873351E0,-1.140838051E1,-3.791427374E0,1.218319100E1
1.746159902E0,1.932802439E0,-1.136530972E1,-3.528217077E0,1.205629736E1
1.748633496E0,1.875374794E0,-1.138445187E1,-3.298506021E0,1.200012154E1
1.751107090E0,1.841875196E0,-1.143709373E1,-3.001796007E0,1.196705463E1
1.753580683E0,1.856232166E0,-1.163868904E1,-2.690130949E0,1.208889925E1
1.756054225E0,1.837089539E0,-1.187318611E1,-2.321636200E0,1.223672510E1
1.758527819E0,1.856232166E0,-1.205982590E1,-1.914856315E0,1.235118105E1
1.761001412E0,1.865803480E0,-1.224168110E1,-1.545763373E0,1.247915715E1
1.763475006E0,1.913659930E0,-1.244267750E1,-1.272981644E0,1.265317351E1
1.765948600E0,1.956730723E0,-1.260120201E1,-9.906286001E-1,1.279063846E1
1.768422194E0,1.971087694E0,-1.268255806E1,-6.646065116E-1,1.285201025E1
1.770895787E0,1.947159410E0,-1.280698490E1,-2.626122832E-1,1.295682281E1
1.773369381E0,1.908874273E0,-1.282134151E1,1.537388563E-1,1.296357338E1
1.775842871E0,1.971087694E0,-1.287876987E1,6.711867452E-1,1.304601057E1
1.778316465E0,1.947159410E0,-1.284048462E1,1.149751306E0,1.303807513E1
1.780790058E0,1.937588096E0,-1.279262829E1,1.509272933E0,1.302626159E1
1.783263652E0,1.980658889E0,-1.269212914E1,1.868196249E0,1.298088244E1
1.785737246E0,2.004587173E0,-1.271127224E1,2.126621008E0,1.304290338E1
1.788210840E0,2.119442701E0,-1.281177044E1,2.313261271E0,1.319032512E1
1.790684433E0,2.215155602E0,-1.294098282E1,2.438286304E0,1.335369577E1
1.793157975E0,2.344966173E0,-1.314676571E1,2.687139750E0,1.362193213E1
1.795631569E0,2.517249346E0,-1.337169075E1,2.845066071E0,1.390082943E1
1.798105162E0,2.794816732E0,-1.364985657E1,3.026920557E0,1.425804450E1
1.800578756E0,3.072384357E0,-1.384128284E1,3.132204771E0,1.452003317E1
1.803052350E0,3.335594654E0,-1.397049522E1,3.127419233E0,1.469971699E1
1.805525944E0,3.541975737E0,-1.410927868E1,3.218346357E0,1.489882849E1
1.807999485E0,3.671188116E0,-1.423849106E1,3.218346357E0,1.505224246E1
1.810473079E0,3.766901016E0,-1.429113293E1,3.242274761E0,1.513070948E1
1.812946673E0,3.781257868E0,-1.440598869E1,3.381656647E0,1.527304891E1
1.815420215E0,3.814757586E0,-1.443470287E1,3.520440340E0,1.533970413E1
1.817893808E0,3.838685751E0,-1.448255920E1,3.664009571E0,1.542416920E1
1.820367402E0,3.857828379E0,-1.456929874E1,3.788436413E0,1.554025599E1
1.822840944E0,3.862613916E0,-1.467458344E1,3.836292982E0,1.565184747E1
1.825314590E0,3.814757586E0,-1.476072502E1,3.774079561E0,1.570589237E1
1.827788131E0,3.680759430E0,-1.483250904E1,3.721437454E0,1.572896726E1
1.830261777E0,3.532404423E0,-1.487557983E1,3.549154282E0,1.569577180E1
1.832735319E0,3.412763357E0,-1.486600876E1,3.467798233E0,1.564195623E1
1.835208860E0,3.230310678E0,-1.480858135E1,3.429512978E0,1.553996615E1
1.837682454E0,3.000599623E0,-1.483250904E1,3.410370588E0,1.551249658E1
1.840156048E0,2.775674343E0,-1.479422379E1,3.424727440E0,1.543703934E1
1.842629590E0,2.617748022E0,-1.468415451E1,3.472583771E0,1.531456289E1
1.845103183E0,2.402393818E0,-1.452084446E1,3.501297712E0,1.512896247E1
1.847576777E0,2.239083767E0,-1.443948841E1,3.582653761E0,1.504485725E1
1.850050371E0,2.071586132E0,-1.436291790E1,3.692723513E0,1.497401371E1
1.852523965E0,1.995015860E0,-1.433898926E1,3.802793503E0,1.496823101E1
1.854978965E0,1.899302959E0,-1.434377575E1,3.965505362E0,1.500254936E1
1.857433965E0,1.798804402E0,-1.439163208E1,4.180859566E0,1.509418292E1
1.859888965E0,1.683948994E0,-1.442991734E1,4.444668293E0,1.519254010E1
1.862343965E0,1.655235052E0,-1.451127338E1,4.770092010E0,1.536459033E1
1.864798965E0,1.588235974E0,-1.460279846E1,5.052444935E0,1.553355775E1
1.867253965E0,1.516451359E0,-1.469372559E1,5.296513081E0,1.569261760E1
1.869708965E0,1.482951880E0,-1.483729458E1,5.550750256E0,1.591085432E1
1.872163965E0,1.454237938E0,-1.498086452E1,5.742176056E0,1.610942878E1
1.874708965E0,1.401595831E0,-1.511964798E1,5.909673691E0,1.629393964E1
1.877253965E0,1.358525038E0,-1.526800346E1,6.153741837E0,1.651744710E1
1.879734850E0,1.344168067E0,-1.538285828E1,6.349953175E0,1.669613793E1
1.882209225E0,1.190429211E0,-1.544028664E1,6.556334019E0,1.681680971E1
1.884683652E0,1.046859860E0,-1.553599930E1,6.637690067E0,1.692696426E1
1.887158027E0,9.702895880E-1,-1.558864117E1,6.857829571E0,1.705804859E1
1.889632454E0,8.219345808E-1,-1.565145302E1,6.853044033E0,1.710578179E1
1.892106881E0,7.022934556E-1,-1.584287834E1,6.939185619E0,1.731017930E1
1.894574694E0,6.065805554E-1,-1.599601936E1,7.173682213E0,1.754144498E1
1.897048912E0,5.730810165E-1,-1.605823326E1,7.403393269E0,1.769196171E1
1.899523183E0,4.390829504E-1,-1.615873146E1,7.628916740E0,1.787450047E1
1.901997402E0,2.566302419E-1,-1.606301880E1,7.758129120E0,1.784026344E1
1.904471673E0,1.274178028E-1,-1.594816303E1,7.810771465E0,1.775861172E1
1.906945892E0,-5.922235921E-2,-1.584287834E1,7.825128078E0,1.767011406E1
1.909420162E0,-2.123630047E-1,-1.576152229E1,7.872984886E0,1.761972117E1
1.911894381E0,-3.463610709E-1,-1.578066540E1,7.868198872E0,1.763683418E1
1.914363392E0,-4.468596280E-1,-1.590030670E1,7.681559086E0,1.766425166E1
1.916837454E0,-4.612165689E-1,-1.608694649E1,7.537989616E0,1.777143369E1
1.919311569E0,-4.564309120E-1,-1.633101463E1,7.436892986E0,1.795042466E1
1.921785683E0,-4.564309120E-1,-1.664746475E1,7.389036179E0,1.821933773E1
1.924259850E0,-5.090730190E-1,-1.694896126E1,7.302894592E0,1.846235934E1
1.926733912E0,-6.430711150E-1,-1.724567032E1,7.274180889E0,1.872806431E1
1.929208079E0,-7.435696125E-1,-1.750888062E1,7.250252724E0,1.896523031E1
1.931682194E0,-8.638089895E-1,-1.774397659E1,7.202396393E0,1.916949100E1
1.934152090E0,-1.002592683E0,-1.791625977E1,7.207181931E0,1.933755485E1
1.936626100E0,-1.141376376E0,-1.805982971E1,7.293323517E0,1.951032437E1
1.939100110E0,-1.261017561E0,-1.817468452E1,7.326822758E0,1.963648784E1
1.941574121E0,-1.356730461E0,-1.826082611E1,7.326822758E0,1.972259667E1
1.944048131E0,-1.462014675E0,-1.836132431E1,7.484749317E0,1.988208213E1
1.946522142E0,-1.686939955E0,-1.831825447E1,7.695915699E0,1.994069537E1
1.948996152E0,-1.917249203E0,-1.820818329E1,7.887341499E0,1.993549445E1
1.951470162E0,-2.142174482E0,-1.808854294E1,8.030911446E0,1.990677864E1
1.953925162E0,-2.300100803E0,-1.792583084E1,8.131409645E0,1.981781264E1
1.956380162E0,-1.893320918E0,-1.831825447E1,1.034357452E1,2.112185231E1
1.958835162E0,-1.797009826E0,-1.811725616E1,1.079880905E1,2.116786461E1
1.961290162E0,-1.969891191E0,-1.772483444E1,1.054457092E1,2.071806466E1
1.963751933E0,-1.629512191E0,-1.786361694E1,1.157408333E1,2.134768196E1
1.966223965E0,-1.749153376E0,-1.715952873E1,9.788438797E0,1.983235987E1
1.968695944E0,-1.730010748E0,-1.674317741E1,9.558130264E0,1.935677611E1
1.971167923E0,-1.438086390E0,-1.664267921E1,9.932008743E0,1.943429087E1
1.973712923E0,-1.021735311E0,-1.654158211E1,1.009950638E1,1.940793422E1
1.976203600E0,-6.430711150E-1,-1.633101463E1,1.009472084E1,1.920986643E1
1.978677819E0,-1.884347796E-1,-1.615873146E1,1.000379372E1,1.900568333E1
1.981152090E0,1.465603858E-1,-1.594337749E1,9.984650612E0,1.881238990E1
1.983626360E0,3.768695593E-1,-1.575673676E1,9.711869240E0,1.851316256E1
1.986100579E0,6.113662124E-1,-1.551207066E1,9.251849174E0,1.807193453E1
1.988574850E0,1.195214868E0,-1.548335743E1,8.912068367E0,1.790496742E1
1.991049069E0,2.359323025E0,-1.582852173E1,9.754940033E0,1.874212796E1
1.993518079E0,3.781257868E0,-1.645065498E1,1.163629627E1,2.050183776E1
1.995992194E0,4.192823410E0,-1.656551170E1,1.191924763E1,2.083421249E1
1.998466308E0,4.700700283E0,-1.671924973E1,1.275733376E1,2.154946540E1
2.000940423E0,5.231906891E0,-1.680060577E1,1.383948803E1,2.238670661E1
2.003414537E0,5.524429321E0,-1.685324860E1,1.556291866E1,2.359567216E1
2.005888652E0,5.955137253E0,-1.706381607E1,1.787079620E1,2.541658584E1
2.008362767E0,6.270989895E0,-1.694417572E1,2.019841385E1,2.709993223E1
2.010836881E0,6.592226505E0,-1.659901047E1,2.182613182E1,2.820220965E1
2.013291881E0,6.735795975E0,-1.600559044E1,2.251586342E1,2.843438021E1
2.015746881E0,6.759724140E0,-1.522493267E1,2.241057777E1,2.792358217E1
2.018201881E0,6.649653912E0,-1.449691582E1,2.167299080E1,2.690905044E1
2.020656881E0,6.208776474E0,-1.363549995E1,2.043769646E1,2.534117599E1
2.023111881E0,5.854638577E0,-1.285962677E1,1.921675873E1,2.385226634E1
2.025566881E0,6.141777515E0,-1.239960670E1,1.752144432E1,2.232650193E1
2.028021881E0,6.400202274E0,-1.200239849E1,1.533799362E1,2.050059041E1
2.030476881E0,6.333203316E0,-1.142273712E1,1.313539982E1,1.852369067E1
2.033021881E0,5.993422508E0,-1.085803127E1,1.127737331E1,1.676296827E1
2.035569902E0,5.825924873E0,-1.054696369E1,9.678369522E0,1.545479474E1
2.038044694E0,5.476572990E0,-1.033579731E1,8.265407562E0,1.432265757E1
2.040519433E0,5.059623718E0,-1.002951622E1,6.977470875E0,1.322407228E1
2.042994225E0,4.466203690E0,-9.866804123E0,5.809175014E0,1.229013073E1
2.045468965E0,3.843471289E0,-9.574879646E0,4.894518852E0,1.141958434E1
2.047943704E0,3.354737282E0,-9.334999084E0,3.941577196E0,1.067391685E1
2.050418444E0,2.823530674E0,-9.076574326E0,3.227917671E0,1.003872399E1
2.052883965E0,2.286940336E0,-8.875576973E0,2.801995277E0,9.584213074E0
2.055358496E0,1.741376638E0,-8.669795036E0,2.524427891E0,9.196220677E0
2.057833027E0,1.271785259E0,-8.535796165E0,2.270190477E0,8.923621391E0
2.060307506E0,8.697910309E-1,-8.468797684E0,2.140978098E0,8.778431401E0
2.062782037E0,4.821537733E-1,-8.430512428E0,2.169692039E0,8.718576467E0
2.065256569E0,1.369891018E-1,-8.459226608E0,2.289333105E0,8.764606488E0
2.067731100E0,-4.965107143E-2,-8.717651367E0,2.443071842E0,9.053646261E0
2.070205631E0,-2.171486616E-1,-8.889934540E0,2.634497643E0,9.274624925E0
2.072672610E0,-4.420739710E-1,-9.090931892E0,2.811566591E0,9.526036887E0
2.075146985E0,-6.622136831E-1,-9.315856934E0,2.983849764E0,9.804441686E0
2.077621308E0,-8.829515576E-1,-9.364311218E0,3.256631613E0,9.953671559E0
2.080095631E0,-9.595218897E-1,-9.488738060E0,3.419941664E0,1.013177345E1
2.082569954E0,-1.184447169E0,-9.488738060E0,3.299702406E0,1.011568589E1
2.085044329E0,-1.533799291E0,-9.550951958E0,3.074777126E0,1.015024522E1
2.087518652E0,-1.811366796E0,-9.613164902E0,3.060420275E0,1.024988592E1
2.089992975E0,-1.945963025E0,-9.613164902E0,3.122633457E0,1.029322842E1
2.092461308E0,-2.046461582E0,-9.603593826E0,2.993421078E0,1.026535869E1
2.094935527E0,-2.151745796E0,-9.584450722E0,2.706282377E0,1.018899749E1
2.097409694E0,-2.271386862E0,-9.598808289E0,2.586641312E0,1.019740320E1
2.099883860E0,-2.347957134E0,-9.694520950E0,2.471785784E0,1.027649571E1
2.102358027E0,-2.510669231E0,-9.598808289E0,2.414358139E0,1.021125388E1
2.104832246E0,-2.496312141E0,-9.584450722E0,2.337787628E0,1.017637072E1
2.107306412E0,-2.501097918E0,-9.479166985E0,2.361716032E0,1.008403690E1
2.109780631E0,-2.486740828E0,-9.393025398E0,2.284547329E0,9.981581166E0
2.112250006E0,-2.515454769E0,-9.306285858E0,2.179263115E0,9.883504282E0
2.114724017E0,-2.491526604E0,-9.277571678E0,2.117049932E0,9.836815617E0
2.117198079E0,-2.467598438E0,-9.263215065E0,2.045265198E0,9.802005158E0
2.119672142E0,-2.501097918E0,-9.119645119E0,2.021337032E0,9.670016612E0
2.122146256E0,-2.290529490E0,-8.942576408E0,2.169692039E0,9.482814018E0
2.124620267E0,-2.151745796E0,-8.674580574E0,2.294118643E0,9.227206427E0
2.127094329E0,-2.089532375E0,-8.511868477E0,2.294118643E0,9.059858214E0
2.129568392E0,-1.965105653E0,-8.382656097E0,2.265404940E0,8.902955858E0
2.132038756E0,-1.859821439E0,-8.224131584E0,2.222334146E0,8.719750292E0
2.134512715E0,-1.691725612E0,-8.085348129E0,2.174477577E0,8.541846560E0
2.136986621E0,-1.529013634E0,-8.003992081E0,2.021337032E0,8.395687900E0
2.139460631E0,-1.380658627E0,-8.023134232E0,1.700698733E0,8.316806919E0
2.141934590E0,-1.289731383E0,-8.166703224E0,1.461416483E0,8.396081630E0
2.144408548E0,-1.237089276E0,-8.382656097E0,1.485344648E0,8.602648537E0
2.146882506E0,-1.189232826E0,-8.593224525E0,1.298704505E0,8.771796615E0
2.149356465E0,-1.083948612E0,-8.703293800E0,1.034895778E0,8.831380234E0
2.151827402E0,-1.016949654E0,-8.779864311E0,8.338986635E-1,8.877814534E0
2.154301256E0,-9.882357717E-1,-8.832506180E0,5.563312769E-1,8.905014309E0
2.156775162E0,-4.229314029E-1,-9.301499367E0,1.489532143E-1,9.312300924E0
2.159249069E0,3.577269912E-1,-1.004865837E1,2.446661144E-1,1.005800006E1
2.161722923E0,6.640082598E-1,-1.046560764E1,5.563312769E-1,1.050139775E1
2.164196829E0,3.960121572E-1,-1.062831974E1,4.223332107E-1,1.064407683E1
2.166670735E0,2.859423161E-1,-1.089631653E1,7.716853172E-2,1.090034091E1
2.169144590E0,2.518445849E-1,-1.121695423E1,1.058823988E-1,1.122028070E1
2.171615996E0,7.477571070E-2,-1.153819084E1,1.250249892E-1,1.153911047E1
2.174089902E0,-1.836491376E-1,-1.183490086E1,1.250249892E-1,1.183698596E1
2.176563704E0,-3.080759048E-1,-1.215553856E1,-2.333002165E-2,1.215946433E1
2.179037558E0,-4.325026870E-1,-1.264427280E1,5.324030295E-2,1.265177963E1
2.181511308E0,-5.138586760E-1,-1.303190994E1,3.314059377E-1,1.304624687E1
2.183985215E0,-6.047859192E-1,-1.329512119E1,5.228317380E-1,1.331913535E1
2.186459017E0,-6.574280262E-1,-1.357807255E1,9.343972206E-1,1.362605460E1
2.188932871E0,-7.968099117E-1,-1.381735420E1,1.130608678E0,1.388641275E1
2.191404746E0,-8.973084688E-1,-1.407577896E1,1.499701619E0,1.418385775E1
2.193878548E0,-1.174875975E0,-1.440120316E1,2.136192322E0,1.460610501E1
2.196352298E0,-1.428515077E0,-1.468894005E1,2.519642353E0,1.497178054E1
2.198826100E0,-1.663011789E0,-1.498086452E1,2.830709219E0,1.533638891E1
2.201299902E0,-1.926820397E0,-1.526800346E1,2.974278450E0,1.567389227E1
2.203773652E0,-2.012962103E0,-1.568973827E1,3.041277647E0,1.610804995E1
2.206247402E0,-2.209173441E0,-1.615873146E1,3.458226919E0,1.667166408E1
2.208721204E0,-2.362314224E0,-1.646501350E1,3.472583771E0,1.699223459E1
2.211193392E0,-2.410170555E0,-1.702074623E1,3.309273720E0,1.750617082E1
2.213667142E0,-2.491526604E0,-1.736052704E1,3.290131092E0,1.784434270E1
2.216140892E0,-2.520240545E0,-1.759023666E1,3.333201885E0,1.807977525E1
2.218614590E0,-2.376671076E0,-1.791147423E1,3.467798233E0,1.839823630E1
2.221088340E0,-2.309672117E0,-1.815554237E1,3.711866140E0,1.867448137E1
2.223562090E0,-2.175673962E0,-1.821296883E1,4.123431683E0,1.880022552E1
2.226035840E0,-1.941177368E0,-1.806940079E1,4.185645103E0,1.864915653E1
2.228509590E0,-1.418943882E0,-1.803590012E1,4.329214573E0,1.860239752E1
2.230982037E0,-1.007378340E0,-1.772483444E1,4.473381996E0,1.830835093E1
2.233455735E0,-4.468596280E-1,-1.727917099E1,4.621737003E0,1.789217389E1
2.235929433E0,7.477571070E-2,-1.660858154E1,4.908875465E0,1.731899624E1
2.238403183E0,5.156532526E-1,-1.575673676E1,5.296513081E0,1.663110647E1
2.240876881E0,8.650053740E-1,-1.474636745E1,5.560321808E0,1.578355999E1
2.243350579E0,1.238285661E0,-1.380778313E1,5.761318684E0,1.501269527E1
2.245824277E0,1.487737536E0,-1.283091354E1,5.904888153E0,1.420258460E1
2.248297975E0,1.602592945E0,-1.188754272E1,6.096313953E0,1.345537142E1
2.250770735E0,1.631306887E0,-1.085803127E1,6.239883423E0,1.262909935E1
2.253244485E0,1.612164259E0,-9.938589096E0,6.239883423E0,1.184528480E1
2.255718131E0,1.602592945E0,-9.172286987E0,6.230311871E0,1.120338961E1
2.258191829E0,1.497308731E0,-8.502297401E0,6.206383705E0,1.063250644E1
2.260665475E0,1.204786181E0,-8.018348694E0,5.976672649E0,1.007303537E1
2.263139225E0,8.745766878E-1,-7.726424217E0,5.718247890E0,9.651988111E0
2.265612871E0,4.773681164E-1,-7.453642368E0,5.469394207E0,9.257372082E0
2.268086569E0,8.434699476E-2,-7.247261524E0,5.267798901E0,8.959889468E0
2.270559381E0,-4.037888348E-1,-7.156334400E0,5.028516769E0,8.755692341E0
2.273033079E0,-8.685946465E-1,-7.170691490E0,4.616951466E0,8.572602519E0
2.275506777E0,-1.351944804E0,-7.065407276E0,4.252644062E0,8.356597169E0
2.277980423E0,-1.850250125E0,-6.921837807E0,3.893720627E0,8.154527851E0
2.280454017E0,-2.233101845E0,-6.677769661E0,3.664009571E0,7.937525914E0
2.282927767E0,-2.697309256E0,-6.639484406E0,3.323630571E0,7.899667750E0
2.285401412E0,-2.999403238E0,-6.701697826E0,2.763710260E0,7.845206686E0
2.287875058E0,-3.233899832E0,-6.634698868E0,2.337787628E0,7.742259889E0
2.290348079E0,-3.597608805E0,-6.505486488E0,2.500499725E0,7.843254582E0
2.292821725E0,-3.875176191E0,-6.644270420E0,2.644068956E0,8.133536781E0
2.295295371E0,-4.052843571E0,-6.701697826E0,2.140978098E0,8.119241466E0
2.297769017E0,-4.110270977E0,-6.787839413E0,2.145763636E0,8.220303703E0
2.300242662E0,-4.277768612E0,-6.969694138E0,2.026122570E0,8.425028981E0
2.302716308E0,-4.359124660E0,-7.204190731E0,1.772483349E0,8.604884027E0
2.305189954E0,-4.483551502E0,-7.314858913E0,1.772483349E0,8.760770070E0
2.307663600E0,-4.622334957E0,-7.386643410E0,1.748555183E0,8.887402689E0
2.310136777E0,-4.722833633E0,-7.472784996E0,1.973480463E0,9.057720368E0
2.312610423E0,-4.837689400E0,-7.601997375E0,2.337787628E0,9.309073736E0
2.315084017E0,-4.875974178E0,-7.846065521E0,2.644068956E0,9.608692367E0
2.317557662E0,-4.818546772E0,-8.176275253E0,2.600998163E0,9.840480753E0
2.320031308E0,-4.698905468E0,-8.478368759E0,2.912065268E0,1.012139188E1
2.322504902E0,-4.689334393E0,-8.880363464E0,3.194418192E0,1.053826456E1
2.324978600E0,-4.612763882E0,-9.320642471E0,3.060420275E0,1.084057835E1
2.327452246E0,-4.560121536E0,-9.833304405E0,3.031706333E0,1.125521334E1
2.329925423E0,-4.607978344E0,-1.040818024E1,3.443870068E0,1.189217900E1
2.332399069E0,-4.713262558E0,-1.103509998E1,3.884149313E0,1.261248950E1
2.334872662E0,-4.847260475E0,-1.191147137E1,3.941577196E0,1.345046895E1
2.337346308E0,-4.957928658E0,-1.282612801E1,3.951148272E0,1.430741727E1
2.339819902E0,-4.957928658E0,-1.360200024E1,3.836292982E0,1.497706950E1
2.342293548E0,-4.837689400E0,-1.424806213E1,3.812364578E0,1.552239147E1
2.344767142E0,-4.627120972E0,-1.468894005E1,3.994219303E0,1.591002816E1
2.347240787E0,-4.387838364E0,-1.484686661E1,4.109074593E0,1.601771106E1
2.349714069E0,-4.129413605E0,-1.480379581E1,4.578666210E0,1.603647753E1
2.352187662E0,-3.798605919E0,-1.470329666E1,5.071587563E0,1.601053841E1
2.354661308E0,-3.401397467E0,-1.457886982E1,5.435296535E0,1.592656267E1
2.357134902E0,-2.989831924E0,-1.444427395E1,5.962316036E0,1.590991381E1
2.359608548E0,-2.467598438E0,-1.430070496E1,6.431309223E0,1.587327763E1
2.362082142E0,-1.869392633E0,-1.418106365E1,6.838686943E0,1.585448940E1
2.364555735E0,-1.222732425E0,-1.400878048E1,7.207181931E0,1.580140742E1
2.367029381E0,-6.047859192E-1,-1.362592888E1,7.436892986E0,1.553509192E1
2.369502767E0,-4.486542568E-2,-1.299362469E1,7.552346706E0,1.502911295E1
2.371976412E0,5.826523304E-1,-1.229432297E1,7.417750359E0,1.437055606E1
2.374450006E0,1.295713425E0,-1.167218876E1,7.312466145E0,1.383441451E1
2.376923600E0,1.918445587E0,-1.110688496E1,7.417750359E0,1.349319633E1
2.379397194E0,2.493321180E0,-1.064746284E1,7.508677483E0,1.326519329E1
2.381870787E0,3.029313564E0,-1.030229759E1,7.590631485E0,1.315035219E1
2.384344433E0,3.508476257E0,-9.919445992E0,7.518248558E0,1.293170042E1
2.386818027E0,3.987040758E0,-9.421739578E0,7.355536938E0,1.260038072E1
2.389291412E0,4.288536549E0,-9.004789352E0,7.039684296E0,1.220798640E1
2.391765006E0,4.561916351E0,-8.564510345E0,6.795616150E0,1.184661627E1
2.394238600E0,4.686343193E0,-8.243273735E0,6.518048763E0,1.150644750E1
2.396712194E0,4.676771641E0,-8.051848412E0,6.134599209E0,1.115068443E1
2.399185840E0,4.657629490E0,-7.884350777E0,5.981458187E0,1.093774847E1
2.401659433E0,4.480560303E0,-7.745566845E0,5.756533146E0,1.063987313E1
2.404133027E0,4.173680782E0,-7.554141045E0,5.411368370E0,1.018663663E1
2.406606621E0,3.738187075E0,-7.453642368E0,4.975874901E0,9.710311951E0
2.409080058E0,3.163311481E0,-7.396214962E0,4.578666210E0,9.256063934E0
2.411553652E0,2.498106956E0,-7.410571575E0,4.176073551E0,8.865477976E0
2.414027246E0,1.698305845E0,-7.511070251E0,3.754936934E0,8.567378271E0
2.416500840E0,7.597211599E-1,-7.640282631E0,3.309273720E0,8.360764766E0
2.418974433E0,-1.692921966E-1,-7.750352383E0,2.825923443E0,8.251209924E0
2.421448027E0,-9.308080077E-1,-7.774280548E0,2.419143677E0,8.195004437E0
2.423921621E0,-1.758724689E0,-7.697710514E0,2.274976015E0,8.217260831E0
2.426395267E0,-2.678166628E0,-7.410571575E0,2.246262312E0,8.193585414E0
2.428868756E0,-3.626322746E0,-6.969694138E0,2.313261271E0,8.190117871E0
2.431342350E0,-4.545764923E0,-6.524629116E0,2.227119684E0,8.258015859E0
2.433815944E0,-5.345565796E0,-6.165107727E0,2.006979942E0,8.403070597E0
2.436289537E0,-5.962913990E0,-5.801398277E0,1.695913076E0,8.490505661E0
2.438763131E0,-6.671787739E0,-5.562116146E0,1.322632670E0,8.786310081E0
2.441236725E0,-7.251449108E0,-5.514259815E0,1.015753269E0,9.166369520E0
2.443710319E0,-7.610372543E0,-5.614758492E0,7.381857634E-1,9.486211119E0
2.446183912E0,-7.806583881E0,-5.710471153E0,3.696911037E-1,9.679302878E0
2.448657402E0,-8.132605553E0,-5.844469070E0,-5.204389244E-2,1.001497880E1
2.451130996E0,-8.237890244E0,-5.983253002E0,-4.683950245E-1,1.019222969E1
2.453604590E0,-8.328817368E0,-6.040680885E0,-8.901300430E-1,1.032721433E1
2.456078183E0,-8.357531548E0,-6.093322754E0,-1.205982566E0,1.041303557E1
2.458551777E0,-8.290532112E0,-6.203392506E0,-1.392622828E0,1.044769829E1
2.461025371E0,-8.166105270E0,-6.270989895E0,-1.473978758E0,1.040111547E1
2.463498965E0,-7.954938889E0,-6.395416737E0,-1.445264935E0,1.030879230E1
2.465972558E0,-7.686942577E0,-6.515058041E0,-1.282552958E0,1.015775613E1
2.468446048E0,-7.217949390E0,-6.634698868E0,-1.124626637E0,9.868272774E0
2.470919642E0,-6.710072994E0,-6.730412006E0,-9.667003751E-1,9.552907148E0
2.473393235E0,-6.140581131E0,-6.749554634E0,-8.853443861E-1,9.167718313E0
2.475866829E0,-5.522634506E0,-6.682555676E0,-7.698906660E-1,8.703377154E0
2.478340423E0,-5.034498692E0,-6.663413048E0,-6.119644046E-1,8.373873115E0
2.480814017E0,-4.584050179E0,-6.639484406E0,-3.774677813E-1,8.077050894E0
2.483287558E0,-4.086342812E0,-6.682555676E0,-1.142572835E-1,7.833760442E0
2.485761152E0,-3.506681681E0,-6.663413048E0,6.759724021E-2,7.530103535E0
2.488234694E0,-2.894119024E0,-6.605985165E0,3.218346536E-1,7.219317313E0
2.490708287E0,-2.577668190E0,-6.491129398E0,2.739782035E-1,6.989577828E0
2.493181881E0,-2.084746838E0,-6.318846226E0,1.585244983E-1,6.655758185E0
2.495655475E0,-1.706082582E0,-6.251847267E0,3.026920557E-1,6.487521446E0
2.498129069E0,-1.677368641E0,-6.193821430E0,4.127618968E-1,6.430191432E0
2.500602610E0,-1.596012712E0,-6.198606968E0,3.696911037E-1,6.411447296E0
2.503076204E0,-1.505085468E0,-6.184250355E0,2.596212626E-1,6.370057921E0
2.505549798E0,-1.428515077E0,-6.169893265E0,2.111666054E-1,6.336626039E0
2.508023340E0,-1.414158225E0,-6.093322754E0,1.489532143E-1,6.257045048E0
2.510496933E0,-1.442872047E0,-5.978467464E0,-4.725824669E-2,6.150299693E0
2.512970527E0,-1.524227977E0,-5.921039581E0,-2.913261652E-1,6.121017202E0
2.515444069E0,-1.677368641E0,-5.820540905E0,-4.253242314E-1,6.072327617E0
2.517917662E0,-1.878963947E0,-5.724828243E0,-5.545366406E-1,6.050758202E0
2.520391256E0,-2.108675003E0,-5.614758492E0,-7.220342159E-1,6.040973150E0
2.522864850E0,-2.395813704E0,-5.586044312E0,-9.379864931E-1,6.150092114E0
2.525338444E0,-2.682952404E0,-5.571687698E0,-1.105484009E0,6.282040457E0
2.527812037E0,-3.075973511E0,-5.724828243E0,-1.277767301E0,6.623289268E0
2.530285631E0,-3.449253798E0,-5.873183250E0,-1.517049551E0,6.978042175E0
2.532759225E0,-3.827319860E0,-6.122036934E0,-1.698904037E0,7.417141529E0
2.535232767E0,-4.210769653E0,-6.385845661E0,-1.943570137E0,7.892215833E0
2.537706360E0,-4.560121536E0,-6.725626469E0,-2.020140409E0,8.373155146E0
2.540179954E0,-4.919044971E0,-7.084549427E0,-2.178066730E0,8.895606708E0
2.542653548E0,-5.144568920E0,-7.453642368E0,-2.230708838E0,9.327348811E0
2.545127142E0,-5.120640278E0,-7.779066563E0,-2.273779631E0,9.586704713E0
2.547600683E0,-5.182853699E0,-8.066205025E0,-2.283350945E0,9.855928546E0
2.550074277E0,-5.455635548E0,-8.286344528E0,-2.335993052E0,1.019236618E1
2.552547871E0,-5.891129494E0,-8.473583221E0,-2.436491728E0,1.060393848E1
2.555021412E0,-6.303293228E0,-8.621937752E0,-2.551347256E0,1.098083280E1
2.557495006E0,-6.604788780E0,-8.607581139E0,-2.608774900E0,1.115882585E1
2.559968600E0,-6.891927242E0,-8.545368195E0,-2.508276224E0,1.126114685E1
2.562442194E0,-6.915855408E0,-8.511868477E0,-2.225923300E0,1.119087555E1
2.564915787E0,-6.757929325E0,-8.559724808E0,-1.655833244E0,1.103087854E1
2.567389381E0,-6.470790863E0,-8.626724243E0,-9.667003751E-1,1.082709634E1
2.569862975E0,-6.212365627E0,-8.559724808E0,-3.008974493E-1,1.058078044E1
2.572336569E0,-5.924628735E0,-8.473583221E0,2.691925466E-1,1.034288658E1
2.574810110E0,-5.723631859E0,-8.248059273E0,6.903293133E-1,1.006315050E1
2.577283704E0,-5.498706341E0,-7.999206066E0,1.049252748E0,9.763401069E0
2.579757298E0,-5.221138954E0,-7.922635555E0,1.518844128E0,9.609127619E0
2.582230892E0,-4.899902344E0,-7.946564198E0,2.255833626E0,9.604463070E0
2.584704485E0,-4.493122578E0,-8.114061356E0,3.055634499E0,9.765400369E0
2.587178027E0,-4.071985722E0,-8.276773453E0,3.788436413E0,9.971875298E0
2.589651621E0,-3.631108284E0,-8.411369324E0,4.621737003E0,1.026140995E1
2.592125162E0,-3.157329559E0,-8.459226608E0,5.291727066E0,1.046563998E1
2.594598756E0,-2.644667149E0,-8.454441071E0,6.244668961E0,1.083825302E1
2.597072350E0,-2.190030813E0,-8.459226608E0,7.188039303E0,1.131470984E1
2.599545944E0,-1.734796405E0,-8.464012146E0,7.681559086E0,1.156094158E1
2.602019537E0,-1.265803218E0,-8.473583221E0,7.849056244E0,1.161944725E1
2.604493131E0,-8.159525394E-1,-8.588438988E0,7.849056244E0,1.166339345E1
2.606966673E0,-3.272185028E-1,-8.770293236E0,7.978269100E0,1.186077119E1
2.609440267E0,1.322034448E-1,-8.846863747E0,8.499904633E0,1.226918313E1
2.611913808E0,4.199403822E-1,-8.602795601E0,8.591429710E0,1.216540614E1
2.614387402E0,7.884350419E-1,-8.271987915E0,8.026124954E0,1.155275273E1
2.616860996E0,1.066002488E0,-8.099704742E0,7.944769382E0,1.139565438E1
2.619334590E0,1.334596872E0,-8.114061356E0,7.992625713E0,1.146739754E1
2.621808183E0,1.521237016E0,-8.330014229E0,7.916055679E0,1.159168826E1
2.624281777E0,1.674377680E0,-8.679366112E0,8.073982239E0,1.197180546E1
2.626755319E0,1.693520188E0,-8.956933022E0,8.035696983E0,1.215183467E1
2.629228912E0,1.636092424E0,-9.393025398E0,8.145766258E0,1.254030432E1
2.631702454E0,1.607378602E0,-9.943374634E0,8.164909363E0,1.296611391E1
2.634176048E0,1.406381488E0,-1.040818024E1,8.073982239E0,1.324753992E1
2.636649642E0,1.209571838E0,-1.082453156E1,7.825128078E0,1.341141964E1
2.639123235E0,1.027717352E0,-1.121695423E1,7.533204079E0,1.355084606E1
2.641596829E0,6.927221417E-1,-1.156211948E1,7.097112179E0,1.358423617E1
2.644070371E0,4.295116663E-1,-1.201675510E1,6.843472958E0,1.383546189E1
2.646544017E0,1.130608693E-1,-1.232782269E1,5.689534187E0,1.357787885E1
2.649017610E0,-2.458625287E-1,-1.252941799E1,4.650450706E0,1.336687904E1
2.651491152E0,-6.957131624E-1,-1.255813122E1,3.702294827E0,1.311097492E1
2.653964746E0,-1.552941918E0,-1.222253799E1,3.103491068E0,1.270565702E1
2.656438340E0,-2.376671076E0,-1.203589821E1,3.041277647E0,1.263965114E1
2.658911933E0,-3.080759048E0,-1.193061352E1,3.117847919E0,1.271029468E1
2.661385527E0,-3.846462488E0,-1.170568848E1,3.184846878E0,1.272641607E1
2.663859121E0,-4.651049137E0,-1.133181000E1,3.381656647E0,1.270739067E1
2.666332662E0,-5.388636589E0,-1.093938732E1,3.386442184E0,1.265604954E1
2.668806256E0,-5.900700569E0,-1.073360443E1,3.372085333E0,1.270430993E1
2.671279798E0,-6.250650883E0,-1.053739262E1,3.242274761E0,1.267357981E1
2.673753392E0,-6.442076683E0,-1.036929703E1,3.113062143E0,1.259816767E1
2.676226985E0,-6.451648235E0,-1.016351414E1,2.715853691E0,1.234085272E1
2.678700579E0,-6.365506649E0,-9.948160172E0,2.217548370E0,1.201678353E1
2.681174173E0,-6.250650883E0,-9.680164337E0,1.715055585E0,1.164979114E1
2.683647715E0,-5.962913990E0,-9.517452240E0,1.197607756E0,1.129479990E1
2.686121360E0,-5.670989513E0,-9.407382011E0,9.391828775E-1,1.102456452E1
2.688594954E0,-5.350351334E0,-9.388239861E0,6.185446382E-1,1.082348856E1
2.691068496E0,-4.967499733E0,-9.503094673E0,2.787638307E-1,1.072672230E1
2.693542090E0,-4.651049137E0,-9.608379364E0,1.345962733E-1,1.067573549E1
2.696015683E0,-4.392624378E0,-9.823733330E0,1.495514158E-2,1.076109238E1
2.698489277E0,-4.172484398E0,-1.007737255E1,-5.682953820E-2,1.090716706E1
2.700962871E0,-4.038486481E0,-1.024487019E1,6.281159073E-2,1.101229692E1
2.703436465E0,-4.009772778E0,-1.042253685E1,2.159522474E-1,1.116934141E1
2.705910006E0,-4.143770695E0,-1.062353420E1,3.744767308E-1,1.140923080E1
2.708383600E0,-4.234697819E0,-1.077188969E1,5.467599630E-1,1.158728698E1
2.710857142E0,-4.277768612E0,-1.080538845E1,7.190431952E-1,1.164357106E1
2.713330735E0,-4.339982033E0,-1.093938732E1,1.125823021E0,1.182256810E1
2.715804329E0,-4.459623337E0,-1.109252739E1,1.514058471E0,1.205092433E1
2.718277923E0,-4.555335999E0,-1.127916813E1,1.887338877E0,1.230986465E1
2.720751517E0,-4.612763882E0,-1.143709373E1,2.327618122E0,1.255000039E1
2.723225058E0,-4.584050179E0,-1.152861977E1,2.629712105E0,1.268219127E1
2.725698652E0,-4.651049137E0,-1.153340530E1,2.787638426E0,1.274451349E1
2.728172246E0,-4.598406792E0,-1.148076344E1,2.979064226E0,1.272116731E1
2.730645787E0,-4.478765965E0,-1.148076344E1,3.170490026E0,1.272475071E1
2.733119381E0,-4.301696777E0,-1.139402294E1,3.463012457E0,1.266178539E1
2.735592975E0,-3.310470104E0,-1.155254745E1,3.247060299E0,1.244845234E1
2.738066569E0,-2.850450039E0,-1.139402294E1,3.361915827E0,1.221684502E1
2.740540162E0,-3.099901676E0,-1.093460083E1,3.960719585E0,1.203587078E1
2.743013704E0,-3.162115097E0,-1.070489025E1,4.343571186E0,1.197748963E1
2.745487298E0,-3.162115097E0,-1.066181946E1,4.674378872E0,1.206329905E1
2.747960892E0,-3.157329559E0,-1.062831974E1,4.990231514E0,1.215863154E1
2.750434433E0,-3.152543783E0,-1.055174923E1,5.219942570E0,1.218711387E1
2.752908027E0,-3.028116941E0,-1.063310528E1,5.334797859E0,1.227568688E1
2.755381621E0,-2.965903759E0,-1.069531918E1,5.488536835E0,1.238186068E1
2.757855215E0,-2.754737139E0,-1.092024422E1,5.493322372E0,1.253063850E1
2.760328808E0,-2.606382132E0,-1.110688496E1,5.435296535E0,1.263718994E1
2.762802350E0,-2.558525562E0,-1.118824005E1,5.545964718E0,1.274678364E1
2.765275996E0,-2.525026083E0,-1.122173977E1,5.770890236E0,1.286881402E1
2.767749590E0,-2.458027124E0,-1.134138107E1,5.952744484E0,1.304239199E1
2.770223131E0,-2.367099762E0,-1.162433243E1,6.019743443E0,1.330284093E1
2.772696725E0,-2.261815548E0,-1.188754272E1,5.952744484E0,1.348572017E1
2.775170319E0,-2.127817631E0,-1.199761295E1,6.000600815E0,1.358225072E1
2.777643912E0,-2.070389748E0,-1.216032505E1,6.287739754E0,1.384542127E1
2.780117506E0,-2.003390789E0,-1.235175037E1,6.373881340E0,1.404299381E1
2.782591048E0,-2.017747641E0,-1.237567902E1,6.211169243E0,1.399311831E1
2.785064642E0,-2.056032896E0,-1.238046455E1,6.249454498E0,1.401994491E1
2.787538235E0,-2.012962103E0,-1.239482117E1,6.220740795E0,1.401360854E1
2.790011777E0,-2.027318954E0,-1.236132145E1,6.153741837E0,1.395639025E1
2.792485371E0,-2.032104731E0,-1.238046455E1,6.062814236E0,1.393424087E1
2.794958965E0,-2.075175524E0,-1.245224857E1,5.742176056E0,1.386857721E1
2.797432558E0,-2.008176327E0,-1.235175037E1,5.306084156E0,1.359238899E1
2.799906152E0,-1.936391711E0,-1.216989613E1,5.071587563E0,1.332580148E1
2.802379694E0,-1.922034740E0,-1.203111267E1,5.148158073E0,1.322669351E1
2.804853287E0,-2.003390789E0,-1.173918819E1,4.918447018E0,1.288461234E1
2.807326881E0,-1.974676847E0,-1.155254745E1,4.612165451E0,1.259495024E1
2.809800423E0,-1.950748682E0,-1.139880848E1,4.511667252E0,1.241343613E1
2.812274017E0,-1.907677889E0,-1.126002502E1,4.400999069E0,1.223912543E1
2.814747610E0,-1.955534339E0,-1.121695423E1,4.185645103E0,1.213110884E1
2.817221204E0,-2.036890268E0,-1.110688496E1,3.874577999E0,1.193834872E1
2.819694798E0,-2.017747641E0,-1.115952682E1,3.745365620E0,1.194295224E1
2.822168340E0,-1.941177368E0,-1.110688496E1,3.597010612E0,1.183509816E1
2.824641985E0,-1.936391711E0,-1.104467106E1,3.467798233E0,1.173712044E1
2.827115579E0,-1.893320918E0,-1.103031445E1,3.314059258E0,1.167199596E1
2.829589121E0,-1.845464468E0,-1.103509998E1,3.184846878E0,1.163281653E1
2.832062715E0,-1.878963947E0,-1.094895840E1,2.955136061E0,1.149534796E1
2.834536308E0,-1.763510346E0,-1.083410263E1,2.131406784E0,1.118171022E1
2.837009902E0,-1.653440475E0,-1.079103184E1,1.839482427E0,1.107085946E1
2.839483496E0,-1.543370605E0,-1.058046341E1,1.643270969E0,1.081797293E1
2.841957037E0,-1.414158225E0,-1.057567787E1,1.111466169E0,1.072754226E1
2.844430631E0,-1.366301775E0,-1.074317551E1,1.250249863E0,1.090163865E1
2.846904225E0,-1.414158225E0,-1.094417286E1,1.034895778E0,1.108358121E1
2.849377767E0,-1.481157184E0,-1.128873920E1,9.774680734E-1,1.142737517E1
2.851851360E0,-1.466800332E0,-1.142752266E1,-2.386840582E-1,1.152374711E1
2.854324954E0,-1.328016520E0,-1.135573769E1,-9.140582681E-1,1.146960805E1
2.856798548E0,-1.179661512E0,-1.129831028E1,-1.024128079E0,1.140579917E1
2.859272142E0,-8.973084688E-1,-1.122173977E1,-1.411765337E0,1.134573432E1
2.861745683E0,-6.622136831E-1,-1.087717342E1,-1.129412293E0,1.095568349E1
2.864219277E0,-7.722834945E-1,-1.059960651E1,-4.971089065E-1,1.063932316E1
2.866692871E0,-6.526423693E-1,-1.005344391E1,-9.619147182E-1,1.012042274E1
2.869166412E0,-4.947160780E-1,-9.407382011E0,-1.325623751E0,9.513193924E0
2.871640006E0,-4.277170599E-1,-8.985647202E0,-9.858429432E-1,9.049678659E0
2.874113600E0,-4.085744619E-1,-8.569295883E0,-2.386840582E-1,8.582350209E0
2.876587194E0,-4.612165689E-1,-8.104490280E0,-1.046859920E-1,8.118278302E0
2.879060787E0,-4.851447940E-1,-7.429714203E0,-3.290131316E-2,7.445609519E0
2.881534329E0,-5.138586760E-1,-6.835696220E0,2.207378894E-1,6.858536197E0
2.884007923E0,-4.037888348E-1,-6.735197544E0,2.446661144E-1,6.751725179E0
2.886481517E0,-9.750752151E-2,-7.165905476E0,1.537388563E-1,7.168217675E0
2.888955058E0,1.992024779E-1,-7.640282631E0,-3.631108403E-1,7.651499839E0
2.891428652E0,5.347958803E-1,-7.836493969E0,-6.119644046E-1,7.878524278E0
2.893902246E0,8.697910309E-1,-7.999206066E0,-5.018945336E-1,8.061993069E0
2.896375840E0,1.042074203E0,-8.171489716E0,-5.401797295E-1,8.255359287E0
2.898849381E0,1.099501967E0,-8.392227173E0,-5.593222976E-1,8.482406671E0
2.901322975E0,1.089930773E0,-8.583653450E0,-4.061816335E-1,8.662103622E0
2.903796621E0,1.061216831E0,-8.655437469E0,-1.854437590E-2,8.720270801E0
2.906270215E0,7.932206988E-1,-8.832506180E0,2.596212626E-1,8.871852551E0
2.908743756E0,5.778666735E-1,-8.832506180E0,5.371887088E-1,8.867675401E0
2.911217350E0,3.002992272E-1,-8.789435387E0,7.381857634E-1,8.825489916E0
2.913690944E0,-1.794616925E-3,-8.789435387E0,9.678967595E-1,8.842567601E0
2.916164537E0,-2.027917206E-1,-8.832506180E0,1.192822099E0,8.914993800E0
2.918638131E0,-4.037888348E-1,-8.818149567E0,1.269392371E0,8.918192877E0
2.921111673E0,-5.330012441E-1,-8.621937752E0,1.624128342E0,8.789749359E0
2.923585267E0,-6.669993401E-1,-8.377870560E0,2.193620205E0,8.685941103E0
2.926058860E0,-8.159525394E-1,-7.970492363E0,2.763710260E0,8.475412760E0
2.928532402E0,-9.738788009E-1,-7.496713161E0,3.079562664E0,8.162894973E0
2.931005996E0,-1.189232826E0,-6.936194420E0,3.396013498E0,7.813960291E0
2.933479590E0,-1.294517040E0,-6.538986206E0,3.869792461E0,7.707749909E0
2.935953183E0,-1.289731383E0,-6.385845661E0,4.233501434E0,7.769489446E0
2.938426777E0,-1.117448211E0,-6.208178520E0,4.400999069E0,7.691486453E0
2.940900319E0,-9.786644578E-1,-6.212964058E0,4.405784607E0,7.679169519E0
2.943373912E0,-7.627122402E-1,-6.174678802E0,4.449453831E0,7.648923301E0
2.945847506E0,-5.473581553E-1,-6.184250355E0,4.540380955E0,7.691528627E0
2.948321048E0,-2.362912297E-1,-6.323632240E0,4.593023300E0,7.819208482E0
2.950794642E0,-4.007977992E-2,-6.491129398E0,4.822733879E0,8.086725501E0
2.953268235E0,8.913264424E-2,-6.821339130E0,4.803591251E0,8.343446594E0
2.955741829E0,2.907279432E-1,-7.098906517E0,4.789234638E0,8.568300000E0
2.958215423E0,4.677968323E-1,-7.334001541E0,4.932804108E0,8.850930394E0
2.960688965E0,6.592226624E-1,-7.592426300E0,5.018945694E0,9.125202876E0
2.963162610E0,8.075776696E-1,-7.788637638E0,5.133800983E0,9.363277764E0
2.965636204E0,9.894321561E-1,-7.970492363E0,5.129015446E0,9.529665469E0
2.968109746E0,9.942178130E-1,-8.147561073E0,5.186442852E0,9.709295029E0
2.970583340E0,8.315058947E-1,-8.358727455E0,5.229514122E0,9.894824136E0
2.973056933E0,6.352944374E-1,-8.497511864E0,5.339583874E0,1.005596653E1
2.975530527E0,2.859423161E-1,-8.574081421E0,5.425725460E0,1.015062225E1
2.978004121E0,-9.750752151E-2,-8.564510345E0,5.353940487E0,1.010074373E1
2.980477662E0,-4.277170599E-1,-8.593224525E0,5.315655708E0,1.011348828E1
2.982951256E0,-7.579265833E-1,-8.688937187E0,5.373083115E0,1.024412536E1
2.985424850E0,-1.083948612E0,-8.746364594E0,5.425725460E0,1.034950892E1
2.987898392E0,-1.485942841E0,-8.837292671E0,5.416153908E0,1.047093554E1
2.990371985E0,-1.898106575E0,-8.875576973E0,5.459823132E0,1.059189991E1
2.992845579E0,-2.252244234E0,-8.794221878E0,5.411368370E0,1.056853113E1
2.995319173E0,-2.539382935E0,-8.665008545E0,5.397011280E0,1.051943770E1
2.997792767E0,-2.802593470E0,-8.588438988E0,5.377869129E0,1.051367161E1
3.000266308E0,-3.066402197E0,-8.559724808E0,5.224728107E0,1.048663411E1
3.002739902E0,-3.267399311E0,-8.631509781E0,4.813162804E0,1.040890943E1
3.005213496E0,-3.382254839E0,-8.626724243E0,4.569094658E0,1.033134284E1
3.007687037E0,-3.434896946E0,-8.574081421E0,4.267001152E0,1.017451169E1
3.010160631E0,-3.473181963E0,-8.665008545E0,3.898506403E0,1.011650721E1
3.012634225E0,-3.511467218E0,-8.832506180E0,3.573082447E0,1.015433334E1
3.015107819E0,-3.420539856E0,-8.942576408E0,3.372085333E0,1.015089775E1
3.017581412E0,-3.286541939E0,-9.052646637E0,3.237488985E0,1.016036928E1
3.020054954E0,-3.109472990E0,-9.057432175E0,3.151347399E0,1.008151230E1
3.022528600E0,-3.037688255E0,-8.961718559E0,3.017349243E0,9.931986001E0
3.025002194E0,-2.937189817E0,-8.875576973E0,2.988635540E0,9.815034030E0
3.027475735E0,-2.802593470E0,-8.688937187E0,2.897708178E0,9.578563164E0
3.029949329E0,-2.745165825E0,-8.487939835E0,2.792423964E0,9.347656906E0
3.032422923E0,-2.697309256E0,-8.344370842E0,2.754138947E0,9.191805226E0
3.034896517E0,-2.568096876E0,-8.181060791E0,2.691925526E0,8.987287704E0
3.037370110E0,-2.496312141E0,-7.927421570E0,2.543570518E0,8.691682118E0
3.039843652E0,-2.443670034E0,-7.759923935E0,2.380858421E0,8.476817182E0
3.042317246E0,-2.333600283E0,-7.597211838E0,2.279761791E0,8.268048852E0
3.044790840E0,-2.261815548E0,-7.501499176E0,2.117049932E0,8.116045828E0
3.047264381E0,-2.242672920E0,-7.060621262E0,1.834696770E0,7.632042103E0
3.049737975E0,-2.328814745E0,-6.404987812E0,7.094719410E-1,6.852050600E0
3.052211569E0,-2.338385820E0,-5.911468506E0,-3.768695518E-2,6.357273665E0
3.054685162E0,-2.391027927E0,-5.274977684E0,-4.875376225E-1,5.812064784E0
3.057158756E0,-2.596810818E0,-4.298107624E0,-1.957927108E0,5.389864018E0
3.059632298E0,-2.520240545E0,-3.680161238E0,-4.141377926E0,6.086559806E0
3.062105892E0,-2.889333248E0,-3.546163082E0,-5.204389095E0,6.928866075E0
3.064579485E0,-3.535395384E0,-3.914657831E0,-3.954737663E0,6.592686587E0
3.067053027E0,-4.086342812E0,-3.818944931E0,-2.530409992E-1,5.598800560E0
3.069526621E0,-4.684548378E0,-2.645863533E0,3.616153240E0,6.482449506E0
3.072000215E0,-5.139782906E0,-8.739784956E-1,4.247858524E0,6.724991358E0
3.074473808E0,-5.603990555E0,6.580262184E-1,1.882553220E0,5.948253127E0
3.076947402E0,-5.934200287E0,1.476969719E0,-1.550549030E0,6.308753830E0
3.079420944E0,-5.987440586E0,9.164510965E-1,-4.232305050E0,7.389298574E0
3.081894590E0,-5.852844238E0,-9.122636318E-1,-4.682155609E0,7.550535859E0
3.084368183E0,-5.637490273E0,-3.450450182E0,-3.456432343E0,7.458808723E0
3.086841725E0,-5.426921844E0,-6.256632805E0,-1.785045743E0,8.472503943E0
3.089315319E0,-5.379065514E0,-8.559724808E0,3.744767308E-1,1.011649482E1
3.091788912E0,-5.455635548E0,-9.967302322E0,2.524427891E0,1.163975133E1
3.094262506E0,-5.800201893E0,-1.050867844E1,4.923232555E0,1.297354552E1
3.096736100E0,-6.288936138E0,-1.034058285E1,6.934400082E0,1.394862989E1
3.099209642E0,-7.136593342E0,-9.823733330E0,8.389834404E0,1.475893026E1
3.101683235E0,-7.998009682E0,-9.550951958E0,9.500701904E0,1.566691351E1
3.104156829E0,-8.558527946E0,-9.589237213E0,1.021436119E1,1.641752251E1
3.106630371E0,-8.994022369E0,-9.905089378E0,1.118166065E1,1.743653546E1
3.109103965E0,-9.367900848E0,-1.010130119E1,1.104287624E1,1.765613117E1
3.111577558E0,-9.425328255E0,-1.025444126E1,1.031486034E1,1.733166819E1
3.114051152E0,-9.243474007E0,-1.047996521E1,9.654440880E0,1.698469050E1
3.116524746E0,-8.754739761E0,-1.079581738E1,8.912068367E0,1.651121145E1
3.118998287E0,-8.300103188E0,-1.074796104E1,8.097909927E0,1.581096217E1
3.121471881E0,-7.902296543E0,-1.039801121E1,7.345965385E0,1.498426292E1
3.123945475E0,-7.332805157E0,-1.015872860E1,6.829115868E0,1.426907922E1
3.126419017E0,-6.738786697E0,-9.890732765E0,6.508477688E0,1.362344019E1
3.128892610E0,-6.221937180E0,-9.661021233E0,6.230311871E0,1.307151940E1
3.131366204E0,-5.680561066E0,-9.546165466E0,5.890531063E0,1.257363930E1
3.133839798E0,-5.082355499E0,-9.488738060E0,5.353940487E0,1.202211155E1
3.136313392E0,-4.603192329E0,-9.287142754E0,4.875376225E0,1.145467998E1
3.138786933E0,-4.105485439E0,-9.138788223E0,4.573880672E0,1.101330311E1
3.141260527E0,-3.616751432E0,-9.043074608E0,4.362713814E0,1.067198956E1
3.143734121E0,-3.152543783E0,-8.928219795E0,4.142574310E0,1.033501635E1
3.146207662E0,-2.649452925E0,-8.760722160E0,3.836292982E0,9.924061538E0
3.148681256E0,-2.146960020E0,-8.602795601E0,3.731008768E0,9.619665062E0
3.151154850E0,-1.806581140E0,-8.497511864E0,3.620938778E0,9.411835152E0
3.153628444E0,-1.505085468E0,-8.392227173E0,3.419941664E0,9.186444370E0
3.156101985E0,-1.289731383E0,-8.358727455E0,3.270988464E0,9.068136371E0
3.158575579E0,-1.208375454E0,-8.368298531E0,3.117847919E0,9.011635100E0
3.161049225E0,-1.098305583E0,-8.305487633E0,2.940778971E0,8.878940304E0
3.163522819E0,-1.026520967E0,-8.214560509E0,2.706282377E0,8.709575992E0
3.165996360E0,-9.882357717E-1,-8.166703224E0,2.610569477E0,8.630569187E0
3.168469954E0,-1.088734269E0,-8.066205025E0,2.447857618E0,8.499471321E0
3.170943548E0,-1.251446247E0,-7.932207108E0,2.303689957E0,8.354221371E0
3.173417142E0,-1.366301775E0,-7.850851059E0,2.274976015E0,8.287228654E0
3.175890735E0,-1.576870084E0,-7.759923935E0,2.179263115E0,8.212924355E0
3.178364277E0,-1.816152334E0,-7.759923935E0,2.002194405E0,8.217275169E0
3.180837871E0,-2.041675806E0,-7.812565804E0,1.935195327E0,8.303589915E0
3.183311465E0,-2.194816589E0,-7.831708431E0,1.896910191E0,8.351715098E0
3.185785006E0,-2.419741869E0,-7.850851059E0,1.868196249E0,8.425032361E0
3.188258600E0,-2.740380049E0,-7.759923935E0,1.939980984E0,8.455153961E0
3.190732194E0,-2.994617462E0,-7.688138962E0,2.174477577E0,8.532500640E0
3.193205787E0,-3.209971666E0,-7.601997375E0,2.557927370E0,8.639286697E0
3.195679381E0,-3.544966698E0,-7.420143127E0,3.108276606E0,8.791285252E0
3.198152923E0,-3.793820381E0,-7.290930748E0,3.640081406E0,8.988934136E0
3.200626517E0,-3.952344894E0,-7.310073376E0,3.841078520E0,9.154894162E0
3.203100110E0,-3.976273060E0,-7.434499741E0,4.133002758E0,9.389581761E0
3.205573652E0,-3.832105398E0,-7.745566845E0,4.238286972E0,9.625066960E0
3.208047246E0,-3.549752474E0,-8.176275253E0,4.109074593E0,9.815126777E0
3.210520840E0,-3.229114056E0,-8.550153732E0,4.118646145E0,1.002474700E1
3.212994433E0,-2.932404041E0,-8.755936623E0,4.056432724E0,1.008563662E1
3.215467975E0,-2.706880569E0,-8.889934540E0,4.061218262E0,1.014157938E1
3.217941569E0,-2.563311338E0,-8.904291153E0,4.195216179E0,1.017137182E1
3.220415162E0,-2.481955290E0,-8.842078209E0,4.262215137E0,1.012466923E1
3.222888756E0,-2.319243431E0,-8.784649849E0,4.400999069E0,1.009543243E1
3.225362298E0,-2.300100803E0,-8.727222443E0,4.578666210E0,1.012023021E1
3.227835892E0,-2.261815548E0,-8.712865829E0,4.516452789E0,1.007115616E1
3.230309485E0,-2.271386862E0,-8.688937187E0,4.540380955E0,1.006339341E1
3.232783079E0,-2.247458696E0,-8.736793518E0,4.593023300E0,1.012316623E1
3.235256621E0,-2.156531334E0,-8.870791435E0,4.554738045E0,1.020231379E1
3.237730215E0,-2.137388945E0,-8.885149002E0,4.612165451E0,1.023652160E1
3.240203860E0,-2.209173441E0,-8.928219795E0,4.573880672E0,1.027199788E1
3.242677454E0,-2.199602127E0,-8.928219795E0,4.530809879E0,1.025083394E1
3.245150996E0,-2.218744755E0,-8.827720642E0,4.564309120E0,1.018255360E1
3.247624590E0,-2.242672920E0,-8.770293236E0,4.396213531E0,1.006351423E1
3.250098183E0,-2.242672920E0,-8.660223007E0,4.281357765E0,9.917614062E0
3.252571777E0,-2.257030010E0,-8.559724808E0,4.142574310E0,9.773637765E0
3.255045371E0,-2.166102648E0,-8.511868477E0,3.860221148E0,9.594019645E0
3.257518912E0,-2.118246317E0,-8.483154297E0,3.606581926E0,9.458240189E0
3.259992506E0,-2.065604210E0,-8.444869041E0,3.280559778E0,9.292179849E0
3.262466100E0,-1.993819475E0,-8.377870560E0,2.935993433E0,9.098576188E0
3.264939642E0,-2.008176327E0,-8.310273170E0,2.725425005E0,8.973369143E0
3.267413235E0,-1.931606054E0,-8.334799767E0,2.471785784E0,8.905600151E0
3.269886829E0,-1.907677889E0,-8.262416840E0,2.284547329E0,8.782136611E0
3.272360423E0,-1.883749604E0,-8.267202377E0,2.212762833E0,8.763074065E0
3.274834017E0,-1.902892232E0,-8.325227737E0,2.136192322E0,8.803052503E0
3.277307558E0,-1.926820397E0,-8.435297966E0,2.026122570E0,8.886622603E0
3.279781152E0,-1.941177368E0,-8.454441071E0,1.978266120E0,8.897150119E0
3.282254746E0,-1.941177368E0,-8.473583221E0,1.896910191E0,8.897642972E0
3.284728287E0,-1.902892232E0,-8.507082939E0,1.858624935E0,8.913245516E0
3.287201881E0,-1.912463546E0,-8.444869041E0,1.939980984E0,8.873379072E0
3.289675475E0,-1.826321840E0,-8.363512993E0,2.088335991E0,8.811637093E0
3.292149069E0,-1.792224169E0,-8.300702095E0,2.207977057E0,8.774331053E0
3.294622610E0,-1.835893154E0,-8.281558990E0,2.327618122E0,8.796165591E0
3.297096204E0,-1.864607096E0,-8.286344528E0,2.462214470E0,8.843232744E0
3.299569850E0,-1.907677889E0,-8.276773453E0,2.596212626E0,8.881696556E0
3.302043444E0,-1.969891191E0,-8.291130066E0,2.687139750E0,8.935548618E0
3.304516985E0,-2.027318954E0,-8.276773453E0,2.801995277E0,8.970294224E0
3.306990579E0,-2.108675003E0,-8.219346046E0,2.926422119E0,8.975973826E0
3.309464173E0,-2.156531334E0,-8.190631866E0,2.964707375E0,8.973659654E0
3.311937767E0,-2.209173441E0,-8.118846893E0,3.074777126E0,8.958257450E0
3.314411360E0,-2.261815548E0,-8.042277336E0,3.184846878E0,8.940765289E0
3.316884902E0,-2.328814745E0,-7.917850018E0,3.218346357E0,8.858525853E0
3.319358496E0,-2.319243431E0,-7.860422611E0,3.318845034E0,8.841937914E0
3.321832090E0,-2.419741869E0,-7.798209190E0,3.357130051E0,8.828224027E0
3.324305631E0,-2.510669231E0,-7.774280548E0,3.405584812E0,8.851039823E0
3.326779225E0,-2.582453728E0,-7.735995770E0,3.439084291E0,8.851101545E0
3.329252819E0,-2.663809776E0,-7.683353424E0,3.424727440E0,8.823749793E0
3.331726412E0,-2.711666346E0,-7.582854748E0,3.549154282E0,8.800529337E0
3.334200006E0,-2.783450842E0,-7.649854183E0,3.687937975E0,8.936932031E0
3.336673548E0,-2.855235577E0,-7.678567886E0,3.831507206E0,9.043960551E0
3.339147142E0,-2.932404041E0,-7.611568928E0,3.912863255E0,9.046848835E0
3.341620735E0,-2.946761131E0,-7.558926582E0,3.841078520E0,8.976338699E0
3.344094277E0,-2.797807932E0,-7.377072334E0,3.740580082E0,8.731601503E0
3.346567871E0,-2.826521635E0,-7.424928665E0,3.616153240E0,8.728995045E0
3.349041465E0,-2.812164783E0,-7.544569969E0,3.558725595E0,8.803029856E0
3.351515058E0,-2.749951363E0,-7.549355507E0,3.577867985E0,8.795233958E0
3.353988652E0,-2.644667149E0,-7.477570534E0,3.439084291E0,8.644976933E0
3.356462194E0,-2.601596355E0,-7.458428383E0,3.275774240E0,8.551441657E0
3.358935840E0,-2.520240545E0,-7.520641804E0,3.251846075E0,8.572407389E0
3.361409433E0,-2.448455811E0,-7.539783955E0,3.275774240E0,8.577527313E0
3.363882975E0,-2.328814745E0,-7.544569969E0,3.237488985E0,8.533771093E0
3.366356569E0,-2.237887383E0,-7.592426300E0,3.122633457E0,8.509049111E0
3.368830162E0,-2.257030010E0,-7.798209190E0,3.232703447E0,8.738227659E0
3.371303756E0,-2.185245275E0,-7.994420528E0,3.223132133E0,8.892392099E0
3.373777350E0,-2.137388945E0,-8.204988480E0,3.156133175E0,9.047178791E0
3.376250892E0,-2.089532375E0,-8.300702095E0,3.117847919E0,9.109817587E0
3.378724485E0,-2.103889227E0,-8.440083504E0,3.122633457E0,9.241872058E0
3.381198079E0,-2.123031855E0,-8.621937752E0,3.156133175E0,9.423706886E0
3.383671621E0,-2.156531334E0,-8.808578491E0,3.256631613E0,9.635732037E0
3.386145215E0,-2.218744755E0,-8.956933022E0,3.333201885E0,9.811203405E0
3.388618808E0,-2.314457655E0,-9.000003815E0,3.232703447E0,9.839062683E0
3.391092402E0,-2.395813704E0,-9.129216194E0,3.093919754E0,9.932514841E0
3.393565996E0,-2.395813704E0,-9.282357216E0,2.983849764E0,1.004019114E1
3.396039537E0,-2.429313183E0,-9.436096191E0,2.835494757E0,1.014798031E1
3.398513131E0,-2.410170555E0,-9.560523033E0,2.749353170E0,1.023579336E1
3.400986725E0,-2.419741869E0,-9.637093544E0,2.687139750E0,1.029317457E1
3.403460267E0,-2.429313183E0,-9.598808289E0,2.581855536E0,1.023252956E1
3.405933860E0,-2.515454769E0,-9.517452240E0,2.514856577E0,1.016040912E1
3.408407454E0,-2.630310297E0,-9.483952522E0,2.385644197E0,1.012695344E1
3.410881048E0,-2.678166628E0,-9.416953087E0,2.395215511E0,1.007911897E1
3.413354642E0,-2.735594511E0,-9.311071396E0,2.462214470E0,1.001209408E1
3.415828183E0,-2.783450842E0,-9.244071960E0,2.490928411E0,9.970215111E0
3.418301777E0,-2.922832966E0,-9.196215630E0,2.548356056E0,9.980353353E0
3.420775371E0,-3.138186932E0,-9.052646637E0,2.744567633E0,9.966507906E0
3.423248912E0,-3.229114056E0,-8.985647202E0,2.821137905E0,9.956297118E0
3.425722506E0,-3.291327477E0,-8.976076126E0,2.926422119E0,9.998336142E0
3.428196100E0,-3.243471146E0,-8.846863747E0,3.017349243E0,9.894013325E0
3.430669694E0,-3.205185890E0,-8.770293236E0,3.012563705E0,9.811564611E0
3.433143235E0,-3.142972469E0,-8.698508263E0,3.170490026E0,9.777235240E0
3.435616829E0,-2.994617462E0,-8.641080856E0,3.318845034E0,9.728861417E0
3.438090475E0,-2.860619545E0,-8.602795601E0,3.342773199E0,9.662575691E0
3.440564069E0,-2.793022156E0,-8.459226608E0,3.496512175E0,9.570009664E0
3.443037610E0,-2.668595552E0,-8.430512428E0,3.434298754E0,9.486271657E0
3.445511204E0,-2.515454769E0,-8.454441071E0,3.419941664E0,9.460501440E0
3.447984798E0,-2.434098721E0,-8.516654015E0,3.491726398E0,9.521049597E0
3.450458392E0,-2.343171597E0,-8.569295883E0,3.472583771E0,9.538454964E0
3.452931985E0,-2.223530531E0,-8.598010063E0,3.515654564E0,9.551423563E0
3.455405527E0,-2.199602127E0,-8.621937752E0,3.630510092E0,9.610237439E0
3.457879121E0,-2.209173441E0,-8.621937752E0,3.731008768E0,9.650838529E0
3.460352715E0,-2.300100803E0,-8.655437469E0,3.759722471E0,9.713010581E0
3.462826256E0,-2.419741869E0,-8.650651932E0,3.754936934E0,9.735937599E0
3.465299850E0,-2.496312141E0,-8.550153732E0,3.740580082E0,9.660675054E0
3.467773444E0,-2.534597397E0,-8.454441071E0,3.668795347E0,9.558337569E0
3.470247037E0,-2.563311338E0,-8.358727455E0,3.568296671E0,9.443073166E0
3.472720631E0,-2.534597397E0,-8.286344528E0,3.482155085E0,9.338795085E0
3.475194173E0,-2.496312141E0,-8.166703224E0,3.400799274E0,9.191955807E0
3.477667767E0,-2.467598438E0,-7.807780266E0,3.439084291E0,8.881316090E0
3.480141360E0,-2.529811859E0,-7.582854748E0,3.419941664E0,8.694575041E0
3.482614902E0,-2.520240545E0,-7.391428947E0,3.361915827E0,8.502194559E0
3.485088496E0,-2.505883455E0,-7.218547821E0,3.396013498E0,8.361805560E0
3.487562090E0,-2.544168711E0,-7.036693096E0,3.472583771E0,8.249041290E0
3.490035683E0,-2.644667149E0,-6.792625427E0,3.496512175E0,8.084529789E0
3.492509225E0,-2.745165825E0,-6.515058041E0,3.501297712E0,7.889296695E0
3.494982819E0,-2.769093990E0,-6.251847267E0,3.539582968E0,7.699488513E0
3.497456412E0,-2.759522676E0,-6.093322754E0,3.530011654E0,7.563367627E0
3.499930006E0,-2.884547710E0,-5.973681927E0,3.616153240E0,7.555266740E0
3.502403548E0,-2.989831924E0,-5.801398277E0,3.549154282E0,7.429119263E0
3.504877142E0,-3.123830080E0,-5.672185898E0,3.439084291E0,7.332073922E0
3.507350735E0,-3.339184046E0,-5.533402443E0,3.477369547E0,7.338991188E0
3.509824329E0,-3.511467218E0,-5.389832973E0,3.366701365E0,7.260535764E0
3.512297871E0,-3.616751432E0,-5.346762180E0,3.391227961E0,7.291720223E0
3.514771465E0,-3.731606960E0,-5.341976643E0,3.318845034E0,7.312751692E0
3.517245110E0,-3.870390654E0,-5.351547718E0,3.098705292E0,7.295269788E0
3.519718704E0,-3.976273060E0,-5.418546677E0,3.089133978E0,7.396900991E0
3.522192246E0,-4.071985722E0,-5.499902725E0,3.041277647E0,7.488615855E0
3.524665840E0,-4.167698860E0,-5.710471153E0,2.854637384E0,7.624181869E0
3.527139433E0,-4.320839405E0,-5.696114540E0,2.830709219E0,7.689492096E0
3.529613027E0,-4.497908592E0,-5.676971912E0,2.701496840E0,7.730283111E0
3.532086621E0,-4.627120972E0,-5.844469070E0,2.605783939E0,7.896719391E0
3.534560162E0,-4.718048096E0,-6.016752720E0,2.586641312E0,8.071679156E0
3.537033756E0,-4.866403103E0,-6.232106686E0,2.510071039E0,8.295871836E0
3.539507350E0,-5.005784988E0,-6.376274109E0,2.443071842E0,8.466602323E0
3.541980892E0,-5.082355499E0,-6.625127792E0,2.529213428E0,8.724653360E0
3.544454485E0,-5.178068161E0,-6.744768620E0,2.538784742E0,8.874103987E0
3.546928079E0,-5.278566837E0,-6.902695179E0,2.624926329E0,9.077483507E0
3.549401673E0,-5.321637630E0,-7.070192814E0,2.878565550E0,9.305567856E0
3.551875267E0,-5.412564754E0,-7.113263607E0,3.041277647E0,9.441596586E0
3.554348808E0,-5.393422127E0,-7.170691490E0,3.036491871E0,9.472491835E0
3.556822402E0,-5.484349728E0,-6.850052834E0,2.998206854E0,9.273109516E0
3.559295996E0,-5.560919762E0,-6.730412006E0,2.998206854E0,9.231008542E0
3.561769537E0,-5.503491879E0,-6.701697826E0,3.036491871E0,9.188115122E0
3.564243131E0,-5.503491879E0,-6.505486488E0,2.935993433E0,9.012759552E0
3.566716725E0,-5.426921844E0,-6.414559364E0,2.931207657E0,8.898878068E0
3.569190319E0,-5.350351334E0,-6.352345943E0,2.854637384E0,8.782227108E0
3.571663860E0,-5.288137913E0,-6.290132523E0,2.730210543E0,8.659342893E0
3.574137454E0,-5.125426292E0,-6.270989895E0,2.792423964E0,8.566967989E0
3.576611100E0,-4.914259434E0,-6.333203316E0,2.667997360E0,8.448527679E0
3.579084694E0,-4.660620213E0,-6.395416737E0,2.639283419E0,8.341975363E0
3.581558235E0,-4.464408875E0,-6.562914371E0,2.648854733E0,8.367748983E0
3.584031829E0,-4.249054909E0,-6.979265213E0,2.648854733E0,8.589589159E0
3.586505423E0,-3.909274101E0,-7.324429989E0,2.758924484E0,8.748792086E0
3.588979017E0,-3.836891174E0,-7.434499741E0,2.845066071E0,8.836737023E0
3.591452610E0,-3.769891977E0,-7.922635555E0,2.624926329E0,9.158082654E0
3.593926152E0,-3.564109325E0,-8.334799767E0,2.620140791E0,9.435936636E0
3.596399746E0,-3.396611691E0,-8.712865829E0,2.644068956E0,9.718132670E0
3.598873340E0,-3.195614576E0,-9.081359863E0,2.754138947E0,1.001340755E1
3.601346881E0,-2.975475073E0,-9.536594391E0,2.816352367E0,1.037939907E1
3.603820475E0,-2.769093990E0,-9.737591743E0,2.830709219E0,1.051196885E1
3.606294069E0,-2.716451883E0,-9.823733330E0,3.074777126E0,1.064608387E1
3.608767662E0,-2.673381090E0,-9.909874916E0,2.979064226E0,1.068772244E1
3.611241256E0,-2.501097918E0,-9.967302322E0,2.830709219E0,1.065905817E1
3.613714798E0,-2.338385820E0,-9.943374634E0,2.720639229E0,1.057074383E1
3.616188392E0,-2.113460541E0,-1.007737255E1,2.639283419E0,1.062948587E1
3.618661985E0,-1.945963025E0,-1.020179939E1,2.400001049E0,1.065943188E1
3.621135527E0,-1.730010748E0,-1.038365364E1,2.078764677E0,1.073007282E1
3.623609121E0,-1.442872047E0,-1.065224838E1,1.853839397E0,1.090820773E1
3.626082715E0,-1.256231904E0,-1.087238789E1,1.767697692E0,1.108655456E1
3.628556308E0,-1.069591761E0,-1.098724365E1,1.581057549E0,1.115182911E1
3.631029902E0,-8.829515576E-1,-1.103988552E1,1.183250785E0,1.113816673E1
3.633503444E0,-7.435696125E-1,-1.120738316E1,1.159322619E0,1.129169438E1
3.635977037E0,-5.904290080E-1,-1.138923740E1,1.001396298E0,1.144841166E1
3.638450631E0,-4.803591371E-1,-1.159083271E1,7.334001660E-1,1.162394183E1
3.640924173E0,-3.846462369E-1,-1.171047401E1,3.792623878E-1,1.172292601E1
3.643397767E0,-3.511467278E-1,-1.185882950E1,4.845465720E-2,1.186412614E1
3.645871360E0,-3.032902777E-1,-1.198804188E1,-2.482553422E-1,1.199444721E1
3.648344954E0,-2.554338276E-1,-1.214596748E1,-3.774677813E-1,1.215451581E1
3.650818496E0,-2.602194548E-1,-1.233260822E1,-2.721835673E-1,1.233835579E1
3.653292090E0,-2.506481707E-1,-1.238525009E1,-2.291127741E-1,1.238990464E1
3.655765735E0,-2.889333367E-1,-1.233739376E1,-1.573280841E-1,1.234177943E1
3.658239329E0,-2.697907388E-1,-1.219861031E1,-3.439682424E-1,1.220644070E1
3.660712871E0,-1.788634956E-1,-1.205504036E1,-2.865405083E-1,1.205977179E1
3.663186465E0,-1.357926875E-1,-1.184447193E1,-3.768695518E-2,1.184531027E1
3.665660058E0,-1.357926875E-1,-1.151426220E1,2.787638307E-1,1.151843665E1
3.668133652E0,-2.745763958E-1,-1.116909790E1,6.233302951E-1,1.118984722E1
3.670607246E0,-4.516452849E-1,-1.099681473E1,8.338986635E-1,1.103763129E1
3.673080787E0,-6.000002623E-1,-1.095374393E1,1.020538807E0,1.101753175E1
3.675554381E0,-8.350951076E-1,-1.092024422E1,1.389631748E0,1.103993632E1
3.678027975E0,-9.595218897E-1,-1.083410263E1,1.283749342E0,1.095200778E1
3.680501517E0,-1.007378340E0,-1.090588760E1,1.168893814E0,1.101451353E1
3.682975110E0,-9.786644578E-1,-1.116909790E1,1.365703583E0,1.129476331E1
3.685448704E0,-6.765705943E-1,-1.136052418E1,1.437488198E0,1.147107796E1
3.687922298E0,-6.239284873E-1,-1.163868904E1,7.956135273E-1,1.168252414E1
3.690395892E0,-8.255237937E-1,-1.201675510E1,4.941178858E-1,1.205520822E1
3.692869433E0,-1.122233868E0,-1.243310642E1,2.063809484E-1,1.248535691E1
3.695343027E0,-1.409372568E0,-1.267298698E1,-2.865405083E-1,1.275433399E1
3.697816621E0,-1.663011789E0,-1.287398434E1,-6.311069727E-1,1.299628320E1
3.700290162E0,-1.912463546E0,-1.296491146E1,-7.651050687E-1,1.312752192E1
3.702763756E0,-2.084746838E0,-1.309412384E1,-7.944171429E-1,1.328282150E1
3.705237350E0,-2.247458696E0,-1.316112232E1,-6.119644046E-1,1.336565419E1
3.707710944E0,-2.448455811E0,-1.296969700E1,-2.578266263E-1,1.320130488E1
3.710184485E0,-2.525026083E0,-1.269691563E1,6.281159073E-2,1.294570850E1
3.712658079E0,-2.639881611E0,-1.254377460E1,2.255235314E-1,1.282053498E1
3.715131673E0,-2.865405083E0,-1.225603771E1,5.850451589E-1,1.260013034E1
3.717605267E0,-2.941975355E0,-1.196889877E1,9.535398483E-1,1.236199802E1
3.720078808E0,-3.013760090E0,-1.157169056E1,1.168893814E0,1.201470287E1
3.722552402E0,-3.162115097E0,-1.113081264E1,1.293918848E0,1.164337528E1
3.725025996E0,-3.205185890E0,-1.068574810E1,1.269392371E0,1.122808025E1
3.727499590E0,-3.377469063E0,-1.036451149E1,1.221535921E0,1.096916340E1
3.729973131E0,-3.650250912E0,-9.957731247E0,1.494915962E0,1.071053300E1
3.732446725E0,-3.789034605E0,-9.651450157E0,1.619342685E0,1.049426244E1
3.734920371E0,-3.889533281E0,-9.364311218E0,1.748555183E0,1.028961802E1
3.737393965E0,-3.909274101E0,-9.114859581E0,1.825125456E0,1.008435284E1
3.739867506E0,-3.851248026E0,-9.047860146E0,1.920838356E0,1.001925669E1
3.742341100E0,-3.914059639E0,-8.947361946E0,1.987837434E0,9.966275448E0
3.744814694E0,-4.100699902E0,-8.698508263E0,2.164906263E0,9.857312251E0
3.747288287E0,-4.737190723E0,-7.745566845E0,3.654438496E0,9.787221384E0
3.749761881E0,-3.803391695E0,-8.507082939E0,3.007778168E0,9.791985398E0
3.752235423E0,-3.731606960E0,-8.942576408E0,2.193620205E0,9.935116151E0
3.754709017E0,-3.846462488E0,-8.918647766E0,2.327618122E0,9.987760398E0
3.757182610E0,-3.722035646E0,-8.937790871E0,2.356930256E0,9.964576019E0
3.759656152E0,-3.616751432E0,-9.181859016E0,2.260619164E0,1.012412095E1
3.762129746E0,-3.540181160E0,-9.512666702E0,2.179263115E0,1.038137265E1
3.764603340E0,-3.358326674E0,-9.943374634E0,1.868196249E0,1.066016953E1
3.767076933E0,-3.425325632E0,-1.008215809E1,1.743769526E0,1.078997218E1
3.769550527E0,-3.391826153E0,-1.014437199E1,1.518844128E0,1.080368711E1
3.772024069E0,-3.372683525E0,-1.017308521E1,1.235892892E0,1.078860918E1
3.774497662E0,-3.425325632E0,-1.014915752E1,9.535398483E-1,1.075395241E1
3.776971256E0,-3.482753277E0,-1.011087227E1,6.999006271E-1,1.071677047E1
3.779444798E0,-3.592823267E0,-1.013001442E1,5.802595019E-1,1.076393387E1
3.781918392E0,-3.640679598E0,-1.021137047E1,6.903293133E-1,1.086292729E1
3.784391985E0,-3.765106440E0,-1.026879883E1,1.010967612E0,1.098391148E1
3.786865579E0,-3.899104595E0,-1.025922680E1,1.451845169E0,1.107079968E1
3.789339121E0,-3.904488325E0,-1.023051357E1,1.772483349E0,1.109279650E1
3.791812715E0,-3.971487284E0,-1.033101177E1,2.054836512E0,1.125721407E1
3.794286308E0,-3.928416491E0,-1.038365364E1,2.443071842E0,1.136755555E1
3.796759902E0,-3.760320902E0,-1.037408257E1,2.682354212E0,1.135590712E1
3.799233444E0,-3.487539053E0,-1.046560764E1,2.639283419E0,1.134273728E1
3.801707037E0,-3.214757204E0,-1.046560764E1,2.711068153E0,1.127889612E1
3.804180631E0,-2.884547710E0,-1.032622623E1,2.935993433E0,1.111627731E1
3.806654225E0,-2.726023197E0,-1.026401234E1,3.275774240E0,1.111358847E1
3.809127767E0,-2.611167669E0,-1.027358437E1,3.812364578E0,1.126493924E1
3.811601360E0,-2.553740025E0,-1.035015392E1,3.860221148E0,1.133792669E1
3.814075006E0,-2.745165825E0,-1.048953629E1,3.410370588E0,1.136648294E1
3.816548600E0,-2.870190859E0,-1.046560764E1,3.568296671E0,1.142364565E1
3.819022142E0,-3.138186932E0,-1.054217815E1,3.477369547E0,1.153593674E1
3.821495735E0,-3.458825111E0,-1.077667522E1,2.797209740E0,1.165866984E1
3.823969329E0,-3.444468260E0,-1.086760235E1,2.974278450E0,1.178199791E1
3.826442923E0,-3.487539053E0,-1.095374393E1,2.725425005E0,1.181420231E1
3.828916517E0,-3.454039574E0,-1.094417286E1,2.591426849E0,1.176523702E1
3.831390058E0,-3.406183004E0,-1.105424213E1,2.629712105E0,1.186228214E1
3.833863652E0,-3.559323788E0,-1.113081264E1,2.591426849E0,1.196993187E1
3.836337246E0,-3.669393539E0,-1.110209846E1,2.514856577E0,1.196016483E1
3.838810787E0,-3.793820381E0,-1.106859970E1,2.524427891E0,1.196995023E1
3.841284381E0,-4.043272018E0,-1.094895840E1,2.567498684E0,1.195072333E1
3.843757975E0,-4.373481750E0,-1.088674450E1,2.591426849E0,1.201515882E1
3.846231569E0,-4.416552544E0,-1.068096161E1,2.734996319E0,1.187725061E1
3.848705162E0,-4.426123619E0,-1.047039413E1,2.754138947E0,1.169636717E1
3.851178704E0,-4.411766529E0,-1.042253685E1,2.888136864E0,1.168050910E1
3.853652298E0,-4.421338081E0,-1.029272652E1,2.969492912E0,1.158906112E1
3.856125892E0,-4.406980991E0,-1.020179939E1,2.964707375E0,1.150163824E1
3.858599433E0,-4.459623337E0,-1.011087227E1,2.529213428E0,1.133644119E1
3.861073027E0,-4.282554150E0,-9.842875481E0,2.596212626E0,1.104367637E1
3.863546621E0,-3.884747505E0,-9.339784622E0,2.457428932E0,1.040969725E1
3.866020215E0,-3.755535126E0,-8.980861664E0,2.088335991E0,9.955956384E0
3.868493756E0,-3.535395384E0,-8.746364594E0,1.815554142E0,9.606984489E0
3.870967350E0,-3.186043262E0,-8.416155815E0,1.523629785E0,9.127102393E0
3.873440996E0,-2.821736097E0,-8.219346046E0,1.499701619E0,8.818670477E0
3.875914590E0,-2.620738983E0,-8.109275818E0,1.399203062E0,8.636341605E0
3.878388131E0,-2.505883455E0,-8.032705307E0,1.125823021E0,8.489480780E0
3.880861725E0,-2.362314224E0,-7.970492363E0,1.097109199E0,8.385280293E0
3.883335319E0,-2.170888424E0,-8.248059273E0,8.530412912E-1,8.571517821E0
3.885808912E0,-2.056032896E0,-8.392227173E0,8.817551732E-1,8.685288733E0
3.888282506E0,-1.955534339E0,-8.526225090E0,9.343972206E-1,8.797370460E0
3.890756048E0,-1.878963947E0,-8.655437469E0,6.376872063E-1,8.879963304E0
3.893229642E0,-1.840678811E0,-8.952147484E0,2.446661144E-1,9.142696788E0
3.895703235E0,-1.878963947E0,-9.268000603E0,6.281159073E-2,9.456758746E0
3.898176777E0,-1.874178290E0,-9.637093544E0,-3.200400174E-1,9.822858131E0
3.900650371E0,-1.979462504E0,-9.976874352E0,-6.454638839E-1,1.019180638E1
3.903123965E0,-2.156531334E0,-1.026879883E1,-9.714859724E-1,1.053767725E1
3.905597558E0,-2.261815548E0,-1.075274658E1,-1.229910851E0,1.105667442E1
3.908071152E0,-2.218744755E0,-1.109252739E1,-1.627119422E0,1.142867052E1
3.910544694E0,-2.237887383E0,-1.151426220E1,-1.808973908E0,1.186839334E1
3.913018287E0,-2.548954248E0,-1.186361504E1,-1.847857237E0,1.227424563E1
3.915491881E0,-2.970689297E0,-1.208375454E1,-1.808973908E0,1.257435904E1
3.917965423E0,-3.463610888E0,-1.209332561E1,-1.948355794E0,1.272954104E1
3.920439017E0,-4.028914928E0,-1.190190029E1,-1.660618901E0,1.267458249E1
3.922912610E0,-4.780261517E0,-1.170568848E1,-1.363908887E0,1.271747972E1
3.925386204E0,-5.254638672E0,-1.156211948E1,-9.858429432E-1,1.273835628E1
3.927859798E0,-5.182853699E0,-1.160997581E1,-3.535395563E-1,1.271921779E1
3.930333340E0,-5.216353416E0,-1.151426220E1,4.366901144E-2,1.264082608E1
3.932806985E0,-5.608776093E0,-1.127438164E1,4.654040039E-1,1.260105755E1
3.935280579E0,-5.891129494E0,-1.084845924E1,1.168893814E0,1.240003175E1
3.937754121E0,-5.997011662E0,-1.030229759E1,1.791625977E0,1.205451816E1
3.940227715E0,-6.087938786E0,-9.646664619E0,2.294118643E0,1.163546807E1
3.942701308E0,-5.871986866E0,-9.287142754E0,2.825923443E0,1.134535560E1
3.945174902E0,-5.580062389E0,-8.971290588E0,3.270988464E0,1.105986061E1
3.947648496E0,-5.158925533E0,-8.746364594E0,3.568296671E0,1.076318482E1
3.950122037E0,-4.627120972E0,-8.545368195E0,3.821935892E0,1.044225838E1
3.952595579E0,-4.258625984E0,-8.214560509E0,4.171288013E0,1.014960804E1
3.955069173E0,-3.836891174E0,-8.238488197E0,4.046861172E0,9.948442441E0
3.957542715E0,-3.434896946E0,-8.219346046E0,3.530011654E0,9.582126525E0
3.960016308E0,-3.219542980E0,-8.224131584E0,3.290131092E0,9.424794954E0
3.962489902E0,-3.075973511E0,-8.325227737E0,2.916850805E0,9.342325649E0
3.964963496E0,-2.946761131E0,-8.377870560E0,2.773281336E0,9.303934955E0
3.967437037E0,-2.740380049E0,-8.473583221E0,2.758924484E0,9.323248347E0
3.969910631E0,-2.553740025E0,-8.535796165E0,2.553141832E0,9.268221917E0
3.972384277E0,-2.295315027E0,-8.564510345E0,2.333002090E0,9.168544448E0
3.974857871E0,-2.328814745E0,-8.526225090E0,2.217548370E0,9.112486663E0
3.977331412E0,-2.620738983E0,-7.788637638E0,2.279761791E0,8.528098434E0
3.979805006E0,-2.730808735E0,-7.807780266E0,2.040479422E0,8.519524945E0
3.982278600E0,-2.568096876E0,-8.693722725E0,1.782054663E0,9.238595954E0
3.984752194E0,-2.462812662E0,-9.196215630E0,1.063609719E0,9.579514275E0
3.987225787E0,-2.606382132E0,-9.153144836E0,5.611169338E-1,9.533527177E0
3.989699329E0,-2.989831924E0,-8.430512428E0,5.371887088E-1,8.961094043E0
3.992172923E0,-2.985046148E0,-9.067003250E0,-5.449653864E-1,9.561277933E0
3.994646517E0,-3.291327477E0,-8.564510345E0,-3.439682424E-1,9.181611414E0
3.997120058E0,-3.731606960E0,-7.759923935E0,3.361915946E-1,8.617095495E0
3.999593652E0,-3.458825111E0,-8.118846893E0,-5.641079545E-1,8.842927333E0
4.002067246E0,-3.267399311E0,-8.262416840E0,-1.091127157E0,8.951758976E0
4.004540840E0,-3.257827997E0,-8.550153732E0,-1.277767301E0,9.238574640E0
4.007014433E0,-3.276970625E0,-8.703293800E0,-1.354337573E0,9.397876873E0
4.009487975E0,-3.233899832E0,-8.779864311E0,-1.378265858E0,9.457470181E0
4.011961569E0,-3.300898790E0,-8.655437469E0,-1.354337573E0,9.361984879E0
4.014435162E0,-3.463610888E0,-8.617152214E0,-1.292124271E0,9.376646404E0
4.016908704E0,-3.707678795E0,-8.631509781E0,-1.406979680E0,9.498917568E0
4.019382298E0,-3.712464333E0,-8.703293800E0,-1.210768223E0,9.539165272E0
4.021855892E0,-3.611965895E0,-8.808578491E0,-1.028913736E0,9.575803681E0
4.024329485E0,-3.846462488E0,-8.650651932E0,-1.287338614E0,9.554386073E0
4.026803027E0,-4.129413605E0,-8.454441071E0,-1.172483087E0,9.481790291E0
4.029276621E0,-4.397409916E0,-8.401798248E0,-1.129412293E0,9.550026173E0
4.031750267E0,-4.603192329E0,-8.325227737E0,-1.138983607E0,9.581027093E0
4.034223860E0,-4.737190723E0,-8.252845764E0,-7.794619799E-1,9.547669880E0
4.036697402E0,-4.770689964E0,-8.252845764E0,-5.784648657E-1,9.550055892E0
4.039170996E0,-4.698905468E0,-8.382656097E0,-5.545366406E-1,9.625806290E0
4.041644590E0,-4.665405750E0,-8.377870560E0,-1.046859920E-1,9.589874091E0
4.044118183E0,-4.655834675E0,-8.487939835E0,2.111666054E-1,9.683310926E0
4.046591777E0,-4.636692047E0,-8.497511864E0,2.931207791E-2,9.680262404E0
4.049065319E0,-4.536193371E0,-8.166703224E0,3.266202807E-1,9.347661347E0
4.051538912E0,-4.469194412E0,-7.779066563E0,7.668996453E-1,9.004205148E0
4.054012506E0,-4.383052826E0,-7.098906517E0,1.308275819E0,8.444951831E0
4.056486048E0,-4.301696777E0,-6.601199627E0,1.423131227E0,8.006605658E0
4.058959642E0,-3.899104595E0,-6.759125710E0,1.015753269E0,7.868961285E0
4.061433235E0,-3.458825111E0,-7.012764931E0,8.913264275E-1,7.869994023E0
4.063906829E0,-3.243471146E0,-7.439285755E0,7.381857634E-1,8.149110126E0
4.066380423E0,-2.956332445E0,-7.726424217E0,8.051848412E-1,8.311790140E0
4.068853965E0,-1.840678811E0,-8.018348694E0,1.542772412E0,8.370314270E0
4.071327558E0,-1.514656782E0,-7.654639721E0,-1.956132501E-1,7.805508245E0
4.073801152E0,-2.371885538E0,-7.874779224E0,-1.387837172E0,8.340508429E0
4.076274694E0,-2.816950560E0,-8.569295883E0,-1.612762451E0,9.163462507E0
4.078748287E0,-2.754737139E0,-9.057432175E0,-1.617548108E0,9.604275932E0
4.081221881E0,-2.529811859E0,-9.143573761E0,-1.765903115E0,9.650041605E0
4.083695475E0,-2.352742910E0,-9.057432175E0,-1.823330879E0,9.533992464E0
4.086169017E0,-2.218744755E0,-8.803792953E0,-1.962712765E0,9.288801863E0
4.088642610E0,-2.257030010E0,-8.665008545E0,-2.029711723E0,9.181300955E0
4.091116256E0,-1.643869162E0,-8.770293236E0,-1.732403636E0,9.089640896E0
4.093589850E0,-1.806581140E0,-8.617152214E0,-1.464407444E0,8.925443230E0
4.096063392E0,-2.357528448E0,-8.822935104E0,-1.268195987E0,9.220110916E0
4.098536985E0,-2.395813704E0,-9.095717430E0,-9.236295223E-1,9.451195182E0
4.101010579E0,-2.424527645E0,-9.110074043E0,-5.306084156E-1,9.442104038E0
4.103484173E0,-2.496312141E0,-9.129216194E0,-2.338984162E-1,9.467252563E0
4.105957767E0,-2.596810818E0,-9.277571678E0,3.649054468E-1,9.641053814E0
4.108431308E0,-2.635095835E0,-9.253643036E0,8.817551732E-1,9.661838939E0
4.110904902E0,-2.649452925E0,-9.196215630E0,4.701896608E-1,9.581808860E0
4.113378496E0,-2.663809776E0,-9.234500885E0,4.510470629E-1,9.621607588E0
4.115852037E0,-2.620738983E0,-9.325428009E0,6.520441771E-1,9.708606593E0
4.118325631E0,-2.443670034E0,-9.527023315E0,9.870393276E-1,9.884833996E0
4.120799225E0,-2.276172638E0,-9.570094109E0,1.063609719E0,9.894388751E0
4.123272819E0,-2.257030010E0,-9.483952522E0,1.154536963E0,9.816949399E0
4.125746412E0,-2.161317110E0,-9.315856934E0,1.068395257E0,9.622782887E0
4.128219954E0,-2.151745796E0,-9.263215065E0,1.039681435E0,9.566509332E0
4.130693548E0,-1.974676847E0,-9.244071960E0,1.125823021E0,9.519437617E0
4.133167142E0,-1.763510346E0,-9.369096756E0,1.298704505E0,9.621672212E0
4.135640683E0,-1.457229018E0,-9.426525116E0,1.375274777E0,9.637129909E0
4.138114277E0,-1.251446247E0,-9.708877563E0,1.101894855E0,9.851019923E0
4.140587871E0,-9.403793216E-1,-9.929018021E0,1.140179992E0,1.003841235E1
4.143061465E0,-5.186443329E-1,-9.881160736E0,1.192822099E0,9.966401256E0
4.145535058E0,-4.803591371E-1,-1.026401234E1,6.233302951E-1,1.029413594E1
4.148008600E0,-4.564309120E-1,-1.012044334E1,1.207179070E0,1.020240089E1
